File: experiments/exp1/dichroic_data.csv
pdms,,pdms-0,,pdms-90,,0,,0-0,,0-90,,0.5,,0.5-0,,0.5-90,,1,,1-90beforenow1,,1-0,,2,,2-0,,2-90,,6,,6-0,,6-90,,10,,10-0,,10-90,,6-2,,6-2-0,,6-2-90,,flat3mms,,flat3mms-0,,flat3mms-90,,pillar3mms,,pillar3mms-0,,pillar3mms-90,,10-2,,10-2–0,,10-2–90,,3mms,,3mms-0,,3mms-90,,
Wavelength (nm),Abs,Wavelength (nm),Abs,Wavelength (nm),Abs,Wavelength (nm),Abs,Wavelength (nm),Abs,Wavelength (nm),Abs,Wavelength (nm),Abs,Wavelength (nm),Abs,Wavelength (nm),Abs,Wavelength (nm),Abs,Wavelength (nm),Abs,Wavelength (nm),Abs,Wavelength (nm),Abs,Wavelength (nm),Abs,Wavelength (nm),Abs,Wavelength (nm),Abs,Wavelength (nm),Abs,Wavelength (nm),Abs,Wavelength (nm),Abs,Wavelength (nm),Abs,Wavelength (nm),Abs,Wavelength (nm),Abs,Wavelength (nm),Abs,Wavelength (nm),Abs,Wavelength (nm),Abs,Wavelength (nm),Abs,Wavelength (nm),Abs,Wavelength (nm),Abs,Wavelength (nm),Abs,Wavelength (nm),Abs,Wavelength (nm),Abs,Wavelength (nm),Abs,Wavelength (nm),Abs,Wavelength (nm),Abs,Wavelength (nm),Abs,Wavelength (nm),Abs,
1100,-1.71362e-05,1100,0.255879,1100,0.508509,1100,0.0264008,1100,0.281088,1100,0.536758,1100,0.00069168,1100,0.257979,1100,0.508667,1100,0.505152,1100,-0.000402599,1100,0.255935,1100,0.00213329,1100,0.257349,1100,0.507502,1100,0.0102655,1100,0.265452,1100,0.524925,1100,0.0265478,1100,0.282668,1100,0.534498,1100,0.00503291,1100,0.25811,1100,0.510321,1100,-0.00145891,1100,0.253664,1100,0.502279,1100,0.00166437,1100,0.258362,1100,0.506077,1100,0.0154763,1100,0.271122,1100,0.518757,1100,-0.00023524,1100,0.253711,1100,0.502792,
1094,0.000355404,1094,0.261605,1094,0.501143,1094,0.0274873,1094,0.287362,1094,0.529901,1094,0.00126183,1094,0.263937,1094,0.501466,1094,0.497949,1094,0.000250649,1094,0.261849,1094,0.00257278,1094,0.263177,1094,0.500156,1094,0.0110685,1094,0.271471,1094,0.517717,1094,0.0275719,1094,0.288968,1094,0.527545,1094,0.00569279,1094,0.263939,1094,0.5032,1094,-0.00101411,1094,0.259172,1094,0.494844,1094,0.0021771,1094,0.264152,1094,0.498902,1094,0.0159412,1094,0.277152,1094,0.511757,1094,1.40304e-05,1094,0.259441,1094,0.495394,
1088,4.06688e-05,1088,0.267936,1088,0.490679,1088,0.0276941,1088,0.294394,1088,0.52013,1088,0.000859902,1088,0.270103,1088,0.490856,1088,0.487494,1088,-0.00012791,1088,0.26819,1088,0.00228909,1088,0.269494,1088,0.489885,1088,0.0107574,1088,0.277896,1088,0.50729,1088,0.027585,1088,0.295732,1088,0.51746,1088,0.00570066,1088,0.270601,1088,0.493297,1088,-0.00105869,1088,0.265971,1088,0.484844,1088,0.00227621,1088,0.270875,1088,0.488944,1088,0.0164013,1088,0.284122,1088,0.502051,1088,0.000161533,1088,0.265987,1088,0.485572,
1082,-0.000221527,1082,0.270602,1082,0.486281,1082,0.0281371,1082,0.297626,1082,0.516446,1082,0.000666583,1082,0.27283,1082,0.48667,1082,0.483263,1082,-0.000275753,1082,0.270922,1082,0.00224888,1082,0.272193,1082,0.485696,1082,0.010765,1082,0.280777,1082,0.503298,1082,0.0280225,1082,0.299007,1082,0.513815,1082,0.00588542,1082,0.273536,1082,0.489296,1082,-0.00108549,1082,0.268771,1082,0.480811,1082,0.00240894,1082,0.273836,1082,0.485031,1082,0.0167494,1082,0.287254,1082,0.49829,1082,0.000194473,1082,0.268782,1082,0.48157,
1076,-0.000628109,1076,0.273126,1076,0.481818,1076,0.0285011,1076,0.300883,1076,0.51283,1076,0.000546849,1076,0.275661,1076,0.48258,1076,0.479188,1076,-0.000380874,1076,0.273756,1076,0.00203755,1076,0.275078,1076,0.481652,1076,0.0110087,1076,0.28389,1076,0.499413,1076,0.0285802,1076,0.302463,1076,0.510089,1076,0.00594546,1076,0.276507,1076,0.485391,1076,-0.0012519,1076,0.27157,1076,0.476769,1076,0.00240732,1076,0.276716,1076,0.481153,1076,0.0169987,1076,0.290386,1076,0.494574,1076,7.51535e-05,1076,0.27164,1076,0.477544,
1070,-0.00102677,1070,0.275754,1070,0.47734,1070,0.0288982,1070,0.304204,1070,0.509155,1070,0.00015713,1070,0.278208,1070,0.478133,1070,0.474816,1070,-0.00075542,1070,0.276436,1070,0.00180588,1070,0.277768,1070,0.477365,1070,0.0107671,1070,0.286598,1070,0.495334,1070,0.0287073,1070,0.305762,1070,0.506352,1070,0.00586947,1070,0.27939,1070,0.481442,1070,-0.00140618,1070,0.274385,1070,0.472605,1070,0.00235563,1070,0.279482,1070,0.477293,1070,0.0171779,1070,0.293572,1070,0.490842,1070,-7.14394e-05,1070,0.274472,1070,0.473576,
1064,-0.00127204,1064,0.278503,1064,0.47331,1064,0.0295388,1064,0.30773,1064,0.506032,1064,2.73106e-05,1064,0.281095,1064,0.474205,1064,0.471016,1064,-0.000745135,1064,0.279385,1064,0.00164101,1064,0.280649,1064,0.473484,1064,0.0109002,1064,0.289705,1064,0.491522,1064,0.0291273,1064,0.309248,1064,0.503007,1064,0.00601073,1064,0.282402,1064,0.477786,1064,-0.00135349,1064,0.277347,1064,0.468818,1064,0.00254541,1064,0.282642,1064,0.473544,1064,0.0175431,1064,0.297063,1064,0.487434,1064,3.9685e-05,1064,0.277396,1064,0.469835,
1058,-0.00141934,1058,0.281448,1058,0.469379,1058,0.0304535,1058,0.311622,1058,0.50312,1058,0.000177821,1058,0.284195,1058,0.470636,1058,0.467351,1058,-0.000652251,1058,0.282441,1058,0.00167666,1058,0.283793,1058,0.469955,1058,0.0114395,1058,0.293088,1058,0.488383,1058,0.0300424,1058,0.313224,1058,0.500192,1058,0.00637669,1058,0.285635,1058,0.474358,1058,-0.00136701,1058,0.280355,1058,0.465168,1058,0.00270513,1058,0.285934,1058,0.470254,1058,0.0181175,1058,0.30052,1058,0.48432,1058,0.000119144,1058,0.280445,1058,0.466341,
1052,-0.00158774,1052,0.284376,1052,0.465273,1052,0.0312822,1052,0.31548,1052,0.500033,1052,0.000227804,1052,0.287294,1052,0.466732,1052,0.463398,1052,-0.000613943,1052,0.285665,1052,0.00167099,1052,0.286966,1052,0.466073,1052,0.0116559,1052,0.296401,1052,0.484606,1052,0.0308038,1052,0.31701,1052,0.496787,1052,0.0067373,1052,0.288991,1052,0.470718,1052,-0.00133145,1052,0.283468,1052,0.461406,1052,0.00303765,1052,0.289062,1052,0.466625,1052,0.0186284,1052,0.304084,1052,0.480932,1052,0.0002959,1052,0.283597,1052,0.462562,
1046,-0.00158072,1046,0.287481,1046,0.461678,1046,0.0324631,1046,0.319614,1046,0.497603,1046,0.000495222,1046,0.290634,1046,0.463292,1046,0.460135,1046,-0.000178162,1046,0.289143,1046,0.00197053,1046,0.290295,1046,0.462857,1046,0.0123423,1046,0.300082,1046,0.48176,1046,0.0320242,1046,0.321353,1046,0.494413,1046,0.00720605,1046,0.292424,1046,0.467677,1046,-0.00104216,1046,0.286787,1046,0.458013,1046,0.00353147,1046,0.292585,1046,0.463536,1046,0.0194497,1046,0.30804,1046,0.478111,1046,0.000608513,1046,0.286956,1046,0.459399,
1040,-0.0014553,1040,0.290696,1040,0.457939,1040,0.0338554,1040,0.324024,1040,0.495325,1040,0.000886645,1040,0.294139,1040,0.46003,1040,0.456872,1040,0.000157234,1040,0.292669,1040,0.0022403,1040,0.293778,1040,0.459409,1040,0.013037,1040,0.303798,1040,0.478667,1040,0.0331603,1040,0.325751,1040,0.491808,1040,0.00807271,1040,0.296225,1040,0.464756,1040,-0.000494761,1040,0.290388,1040,0.454806,1040,0.00426469,1040,0.296337,1040,0.460628,1040,0.0205911,1040,0.312287,1040,0.475438,1040,0.00129506,1040,0.290574,1040,0.456313,
1034,-0.00112303,1034,0.294279,1034,0.454492,1034,0.0355821,1034,0.328788,1034,0.493241,1034,0.0013887,1034,0.297726,1034,0.456799,1034,0.453611,1034,0.00075894,1034,0.296459,1034,0.00278318,1034,0.297588,1034,0.456254,1034,0.0139,1034,0.307765,1034,0.475753,1034,0.0347639,1034,0.330542,1034,0.48955,1034,0.00897902,1034,0.300252,1034,0.461971,1034,3.85459e-05,1034,0.294127,1034,0.451628,1034,0.00503681,1034,0.300325,1034,0.457847,1034,0.0218315,1034,0.316574,1034,0.472956,1034,0.0018854,1034,0.294338,1034,0.453346,
1028,-0.000220699,1028,0.298381,1028,0.451678,1028,0.0379988,1028,0.334397,1028,0.491988,1028,0.00268466,1028,0.302305,1028,0.454441,1028,0.451236,1028,0.00209617,1028,0.300989,1028,0.00392358,1028,0.301874,1028,0.453697,1028,0.0154523,1028,0.312568,1028,0.473839,1028,0.0370432,1028,0.335997,1028,0.488121,1028,0.0104422,1028,0.304791,1028,0.459762,1028,0.00104635,1028,0.298429,1028,0.448954,1028,0.00636542,1028,0.30475,1028,0.455544,1028,0.0234881,1028,0.321587,1028,0.470957,1028,0.00308525,1028,0.298704,1028,0.450911,
1022,0.000463477,1022,0.302479,1022,0.448387,1022,0.0403737,1022,0.34003,1022,0.490536,1022,0.0036009,1022,0.306584,1022,0.451572,1022,0.448293,1022,0.00308233,1022,0.305464,1022,0.00475837,1022,0.306064,1022,0.450753,1022,0.0168803,1022,0.317165,1022,0.471362,1022,0.0391166,1022,0.341521,1022,0.48637,1022,0.0118366,1022,0.309417,1022,0.457301,1022,0.00208912,1022,0.302696,1022,0.446174,1022,0.00773054,1022,0.309303,1022,0.453122,1022,0.0252397,1022,0.326713,1022,0.468906,1022,0.00428801,1022,0.303116,1022,0.448417,
1016,0.000446581,1016,0.305901,1016,0.444613,1016,0.0422008,1016,0.345143,1016,0.488775,1016,0.00415397,1016,0.310502,1016,0.448312,1016,0.445069,1016,0.00365845,1016,0.309477,1016,0.00533197,1016,0.310075,1016,0.447437,1016,0.0178881,1016,0.321503,1016,0.468804,1016,0.040865,1016,0.346782,1016,0.484297,1016,0.0128659,1016,0.313693,1016,0.454493,1016,0.00266405,1016,0.30666,1016,0.442957,1016,0.00860833,1016,0.313536,1016,0.450362,1016,0.026669,1016,0.331483,1016,0.466519,1016,0.00495032,1016,0.307116,1016,0.445428,
1010,-0.000516532,1010,0.308612,1010,0.439548,1010,0.0433701,1010,0.349773,1010,0.486084,1010,0.00360544,1010,0.313413,1010,0.443848,1010,0.440605,1010,0.00315072,1010,0.312438,1010,0.00485123,1010,0.313162,1010,0.443178,1010,0.0180536,1010,0.325041,1010,0.465061,1010,0.0420611,1010,0.35138,1010,0.481633,1010,0.0129634,1010,0.317001,1010,0.450782,1010,0.00219997,1010,0.309774,1010,0.438747,1010,0.0086843,1010,0.316958,1010,0.446728,1010,0.027205,1010,0.335577,1010,0.463278,1010,0.00481493,1010,0.310386,1010,0.441408,
1004,-0.000872206,1004,0.311889,1004,0.435308,1004,0.0454441,1004,0.355215,1004,0.48432,1004,0.00378897,1004,0.317224,1004,0.440251,1004,0.436993,1004,0.00335449,1004,0.316362,1004,0.00508225,1004,0.317008,1004,0.439629,1004,0.0190547,1004,0.329508,1004,0.462367,1004,0.044063,1004,0.357064,1004,0.479847,1004,0.0137087,1004,0.321235,1004,0.44771,1004,0.00248597,1004,0.313631,1004,0.435241,1004,0.00950491,1004,0.321041,1004,0.443823,1004,0.028468,1004,0.340483,1004,0.460851,1004,0.00530718,1004,0.314385,1004,0.438324,
998,-0.00122511,998,0.315395,998,0.430931,998,0.0477819,998,0.361202,998,0.482847,998,0.00419775,998,0.321255,998,0.436608,998,0.433293,998,0.00371834,998,0.320565,998,0.0054577,998,0.321177,998,0.435977,998,0.020239,998,0.334257,998,0.459637,998,0.0463247,998,0.363037,998,0.478084,998,0.0148802,998,0.325924,998,0.444856,998,0.00313695,998,0.317882,998,0.431792,998,0.0105489,998,0.325754,998,0.44107,998,0.0302144,998,0.345938,998,0.458508,998,0.00616953,998,0.318749,998,0.435299,
992,-0.00135261,992,0.319222,992,0.42641,992,0.0504939,992,0.367598,992,0.481599,992,0.00468386,992,0.325715,992,0.433002,992,0.42972,992,0.00430503,992,0.325095,992,0.00597756,992,0.32559,992,0.432454,992,0.0215947,992,0.339388,992,0.457065,992,0.0489272,992,0.369483,992,0.476844,992,0.0160526,992,0.330776,992,0.442041,992,0.00365449,992,0.322303,992,0.428235,992,0.0116914,992,0.330603,992,0.438327,992,0.0320356,992,0.351579,992,0.456203,992,0.00701962,992,0.323391,992,0.432309,
986,-0.00170981,986,0.323024,986,0.422012,986,0.0532951,986,0.374258,986,0.480412,986,0.0051388,986,0.330204,986,0.429381,986,0.42604,986,0.00481556,986,0.329698,986,0.00646672,986,0.330194,986,0.428804,986,0.0231432,986,0.344862,986,0.454588,986,0.0518759,986,0.376359,986,0.47574,986,0.0174537,986,0.336016,986,0.439322,986,0.00437186,986,0.3271,986,0.424784,986,0.0131122,986,0.335837,986,0.435657,986,0.0340216,986,0.357628,986,0.454089,986,0.00813426,986,0.328426,986,0.429338,
980,-0.0018664,980,0.32725,980,0.417291,980,0.0568223,980,0.381806,980,0.47986,980,0.00608063,980,0.335251,980,0.425995,980,0.422603,980,0.00582988,980,0.335018,980,0.00747701,980,0.335375,980,0.425488,980,0.025272,980,0.350948,980,0.452586,980,0.0554314,980,0.38399,980,0.475226,980,0.0192631,980,0.341662,980,0.436785,980,0.00535551,980,0.33219,980,0.421539,980,0.0149141,980,0.341419,980,0.433426,980,0.0364254,980,0.364272,980,0.452438,980,0.00951237,980,0.333792,980,0.426724,
974,-0.00186305,974,0.331954,974,0.412901,974,0.0608269,974,0.389938,974,0.479758,974,0.00733132,974,0.341081,974,0.422959,974,0.419603,974,0.00717729,974,0.34093,974,0.00878123,974,0.341156,974,0.422437,974,0.0278025,974,0.357725,974,0.45092,974,0.0596311,974,0.39242,974,0.475473,974,0.0213879,974,0.34787,974,0.434434,974,0.00654258,974,0.337812,974,0.418386,974,0.0169502,974,0.347543,974,0.431302,974,0.0391337,974,0.371352,974,0.450817,974,0.011232,974,0.339735,974,0.424207,
968,-0.00186918,968,0.336746,968,0.40799,968,0.0650238,968,0.398385,968,0.479549,968,0.00853322,968,0.346769,968,0.419438,968,0.416121,968,0.00840409,968,0.346802,968,0.00986548,968,0.346893,968,0.418888,968,0.0303627,968,0.364611,968,0.449105,968,0.0640349,968,0.401126,968,0.475406,968,0.0236255,968,0.354405,968,0.432114,968,0.00791327,968,0.343748,968,0.415076,968,0.0192893,968,0.354144,968,0.429292,968,0.0421234,968,0.378716,968,0.449261,968,0.0131642,968,0.346058,968,0.421781,
962,-0.0017093,962,0.341988,962,0.403051,962,0.0697663,962,0.40765,962,0.479855,962,0.0101245,962,0.353221,962,0.416286,962,0.412919,962,0.0101483,962,0.353492,962,0.0115925,962,0.353455,962,0.415818,962,0.0335667,962,0.372321,962,0.447688,962,0.069132,962,0.410796,962,0.476215,962,0.0262459,962,0.361559,962,0.429976,962,0.00950544,962,0.350136,962,0.411905,962,0.0219452,962,0.361121,962,0.427376,962,0.0454034,962,0.386853,962,0.447902,962,0.0153869,962,0.352859,962,0.419391,
956,-0.00176257,956,0.347276,956,0.397831,956,0.0746366,956,0.417217,956,0.480115,956,0.0117149,956,0.359918,956,0.41285,956,0.409643,956,0.0119071,956,0.360437,956,0.013218,956,0.360184,956,0.412547,956,0.0367769,956,0.380439,956,0.446238,956,0.0744734,956,0.420826,956,0.477206,956,0.029199,956,0.369172,956,0.427869,956,0.0113038,956,0.356976,956,0.408724,956,0.0249425,956,0.368838,956,0.425675,956,0.0489288,956,0.395429,956,0.446637,956,0.0178796,956,0.36018,956,0.417252,
950,-0.0017259,950,0.353063,950,0.392459,950,0.0800375,950,0.427461,950,0.480781,950,0.0136275,950,0.367195,950,0.409559,950,0.406317,950,0.0139039,950,0.367914,950,0.0151271,950,0.367424,950,0.409315,950,0.0404577,950,0.389097,950,0.445016,950,0.0804922,950,0.431411,950,0.478586,950,0.0322808,950,0.377008,950,0.425768,950,0.0132356,950,0.364187,950,0.405474,950,0.0281005,950,0.376841,950,0.424015,950,0.052775,950,0.404312,950,0.445478,950,0.0206675,950,0.367902,950,0.415087,
944,-0.00165247,944,0.3592,944,0.386885,944,0.0857802,944,0.438278,944,0.481542,944,0.0157342,944,0.375037,944,0.406278,944,0.403256,944,0.0161903,944,0.376055,944,0.0173973,944,0.375412,944,0.406089,944,0.044653,944,0.398632,944,0.444073,944,0.0871109,944,0.442964,944,0.480441,944,0.0355968,944,0.385588,944,0.423721,944,0.015347,944,0.371909,944,0.402296,944,0.0316321,944,0.385428,944,0.422461,944,0.0568268,944,0.413844,944,0.444391,944,0.023606,944,0.376256,944,0.412973,
938,-0.00182469,938,0.36555,938,0.380951,938,0.091512,938,0.449589,938,0.482475,938,0.0177608,938,0.383152,938,0.402758,938,0.39991,938,0.0184744,938,0.384574,938,0.0195767,938,0.383728,938,0.402851,938,0.0488334,938,0.408536,938,0.443066,938,0.0938654,938,0.455114,938,0.482712,938,0.0390146,938,0.394768,938,0.421625,938,0.0175823,938,0.380192,938,0.398981,938,0.0353733,938,0.394661,938,0.420918,938,0.0609556,938,0.423952,938,0.443395,938,0.0267433,938,0.385178,938,0.410937,
932,-0.00179154,932,0.372467,932,0.374941,932,0.0979424,932,0.461647,932,0.483842,932,0.020266,932,0.39212,932,0.399597,932,0.396972,932,0.0211842,932,0.393959,932,0.02219,932,0.392773,932,0.39991,932,0.0536212,932,0.419369,932,0.442565,932,0.101479,932,0.468121,932,0.485646,932,0.0428526,932,0.404665,932,0.419967,932,0.0201731,932,0.38924,932,0.396007,932,0.0395838,932,0.4047,932,0.419854,932,0.0656202,932,0.434661,932,0.442705,932,0.0303987,932,0.394821,932,0.409226,
926,-0.00169336,926,0.379667,926,0.368882,926,0.104814,926,0.474197,926,0.485668,926,0.0229253,926,0.401441,926,0.396405,926,0.394002,926,0.0242425,926,0.403721,926,0.0251726,926,0.402384,926,0.397027,926,0.0588134,926,0.43067,926,0.442256,926,0.10972,926,0.481761,926,0.488929,926,0.0470531,926,0.414933,926,0.41827,926,0.0229986,926,0.398672,926,0.393025,926,0.0441386,926,0.415182,926,0.418964,926,0.0706387,926,0.44587,926,0.442282,926,0.0343643,926,0.405013,926,0.4077335,
920,-0.000867245,920,0.388037,920,0.363474,920,0.112759,920,0.488122,920,0.488588,920,0.0266293,920,0.41222,920,0.394203,920,0.39221,920,0.0282572,920,0.414944,920,0.0290777,920,0.413222,920,0.394986,920,0.0650473,920,0.443336,920,0.442883,920,0.119182,920,0.496786,920,0.493684,920,0.0520824,920,0.426521,920,0.417529,920,0.0267495,920,0.409247,920,0.39089,920,0.0497126,920,0.426909,920,0.419032,920,0.0765598,920,0.458424,920,0.442756,920,0.039326,920,0.416425,920,0.407181,
914,0.000107673,914,0.397017,914,0.358037,914,0.121431,914,0.502889,914,0.492098,914,0.0307897,914,0.42384,914,0.392279,914,0.390592,914,0.0328052,914,0.42722,914,0.033466,914,0.424924,914,0.393385,914,0.0719378,914,0.456984,914,0.444156,914,0.129645,914,0.51286,914,0.499397,914,0.0577899,914,0.438913,914,0.417096,914,0.0309608,914,0.420686,914,0.389037,914,0.0558927,914,0.439508,914,0.419404,914,0.0830586,914,0.471582,914,0.443714,914,0.0448837,914,0.428739,914,0.407041,
908,0.00456372,908,0.409769,908,0.35593,908,0.134047,908,0.521803,908,0.499609,908,0.0388936,908,0.439635,908,0.394141,908,0.392761,908,0.0413104,908,0.44363,908,0.0414043,908,0.440557,908,0.395008,908,0.0825367,908,0.474631,908,0.448808,908,0.143951,908,0.532933,908,0.508796,908,0.0668327,908,0.455101,908,0.420007,908,0.0383293,908,0.435743,908,0.390219,908,0.0654456,908,0.455838,908,0.423137,908,0.0928634,908,0.488346,908,0.447813,908,0.0539462,908,0.444703,908,0.41022,
902,0.00119242,902,0.415239,902,0.345787,902,0.139456,902,0.533514,902,0.499795,902,0.0389233,902,0.447897,902,0.3878,902,0.386941,902,0.0418326,902,0.452456,902,0.0424902,902,0.449562,902,0.389715,902,0.0863078,902,0.485696,902,0.446596,902,0.151733,902,0.54657,902,0.511742,902,0.0689899,902,0.464747,902,0.415817,902,0.0392614,902,0.444555,902,0.384913,902,0.0686371,902,0.466066,902,0.420377,902,0.0964743,902,0.499149,902,0.445717,902,0.0563841,902,0.454723,902,0.406769,
896,-0.000496209,896,0.4228,896,0.337443,896,0.146975,896,0.54763,896,0.502304,896,0.0410556,896,0.458555,896,0.38344,896,0.383173,896,0.0444829,896,0.463838,896,0.0454474,896,0.460868,896,0.386285,896,0.0921012,896,0.499077,896,0.446436,896,0.161766,896,0.562372,896,0.516971,896,0.0729518,896,0.476526,896,0.413447,896,0.0419754,896,0.455546,896,0.381178,896,0.0737053,896,0.478424,896,0.419365,896,0.101874,896,0.512007,896,0.445457,896,0.0607948,896,0.466824,896,0.405244,
890,-0.00134579,890,0.43149,890,0.329707,890,0.155759,890,0.56288,890,0.506053,890,0.0441711,890,0.470466,890,0.380027,890,0.380384,890,0.0481867,890,0.476464,890,0.0494543,890,0.473487,890,0.383769,890,0.0990275,890,0.513875,890,0.447315,890,0.173145,890,0.57958,890,0.523453,890,0.0779878,890,0.489478,890,0.412054,890,0.0456375,890,0.467764,890,0.378462,890,0.0799353,890,0.492091,890,0.419453,890,0.108422,890,0.525962,890,0.446237,890,0.0663873,890,0.480175,890,0.404744,
884,-0.00157541,884,0.441197,884,0.322698,884,0.165641,884,0.579226,884,0.511035,884,0.0481688,884,0.483673,884,0.377537,884,0.3786,884,0.0528163,884,0.490463,884,0.0544059,884,0.487246,884,0.38227,884,0.106873,884,0.529749,884,0.449102,884,0.185546,884,0.597919,884,0.531111,884,0.0835637,884,0.50342,884,0.411322,884,0.0499534,884,0.48099,884,0.376314,884,0.086742,884,0.506792,884,0.420305,884,0.115748,884,0.540811,884,0.44782,884,0.0726119,884,0.494676,884,0.405075,
878,-0.00149777,878,0.451404,878,0.316124,878,0.175985,878,0.596047,878,0.516704,878,0.0526076,878,0.497477,878,0.375564,878,0.377406,878,0.0579623,878,0.505122,878,0.0597992,878,0.501712,878,0.381219,878,0.115234,878,0.54625,878,0.451423,878,0.198479,878,0.616626,878,0.539412,878,0.0896459,878,0.517999,878,0.411149,878,0.0547614,878,0.494738,878,0.374817,878,0.0942276,878,0.522097,878,0.421712,878,0.123536,878,0.556397,878,0.45011,878,0.0794663,878,0.509822,878,0.406034,
872,-0.0017753,872,0.461368,872,0.309248,872,0.185988,872,0.612471,872,0.522226,872,0.0565434,872,0.510923,872,0.373263,872,0.37592,872,0.0626172,872,0.51938,872,0.0649777,872,0.515929,872,0.38009,872,0.123176,872,0.56234,872,0.453593,872,0.210904,872,0.634834,872,0.547182,872,0.0954239,872,0.532212,872,0.410735,872,0.0592783,872,0.508389,872,0.373176,872,0.10146,872,0.537232,872,0.422987,872,0.131037,872,0.571622,872,0.452316,872,0.0861279,872,0.524725,872,0.406902,
866,-0.00190831,866,0.471476,866,0.302937,866,0.195814,866,0.628566,866,0.527722,866,0.0605993,866,0.524561,866,0.371273,866,0.374862,866,0.0673707,866,0.533825,866,0.0702643,866,0.530308,866,0.37938,866,0.131058,866,0.578551,866,0.45586,866,0.222903,866,0.652692,866,0.554624,866,0.100922,866,0.546374,866,0.410466,866,0.0637113,866,0.521934,866,0.371679,866,0.10842,866,0.552319,866,0.424412,866,0.138422,866,0.586561,866,0.45443,866,0.0927595,866,0.539806,866,0.407955,
860,-0.00195995,860,0.481343,860,0.296924,860,0.204641,860,0.643444,860,0.53235,860,0.0642047,860,0.537528,860,0.369096,860,0.373672,860,0.0717059,860,0.547537,860,0.0750962,860,0.543946,860,0.378436,860,0.138175,860,0.593697,860,0.457516,860,0.233446,860,0.669101,860,0.560696,860,0.105926,860,0.559846,860,0.409887,860,0.0678699,860,0.535057,860,0.370128,860,0.114869,860,0.56659,860,0.425369,860,0.145173,860,0.600731,860,0.456143,860,0.0988869,860,0.554144,860,0.408693,
854,-0.00187532,854,0.491122,854,0.291546,854,0.212235,854,0.657134,854,0.535718,854,0.0674942,854,0.549943,854,0.367026,854,0.372321,854,0.0756145,854,0.560639,854,0.0795351,854,0.557045,854,0.377264,854,0.144415,854,0.60771,854,0.458495,854,0.242148,854,0.683991,854,0.564747,854,0.11026,854,0.572423,854,0.408953,854,0.0715345,854,0.547409,854,0.36845,854,0.120456,854,0.580011,854,0.425635,854,0.150817,854,0.613877,854,0.457134,854,0.104297,854,0.567552,854,0.40902,
848,-0.0019867,848,0.50013,848,0.286332,848,0.21749,848,0.668701,848,0.536878,848,0.0697251,848,0.56109,848,0.364211,848,0.370273,848,0.0782982,848,0.572111,848,0.0827462,848,0.568526,848,0.375407,848,0.14876,848,0.619912,848,0.458014,848,0.247968,848,0.696296,848,0.56587,848,0.113117,848,0.583396,848,0.406929,848,0.0740446,848,0.558368,848,0.365992,848,0.124293,848,0.591712,848,0.424527,848,0.154755,848,0.625049,848,0.45641,848,0.108161,848,0.57939,848,0.40807,
842,-0.00194707,842,0.508716,842,0.281852,842,0.220501,842,0.678128,842,0.535709,842,0.071123,842,0.570814,842,0.361012,842,0.367623,842,0.0801236,842,0.582066,842,0.0847987,842,0.578502,842,0.372835,842,0.151272,842,0.630095,842,0.455927,842,0.250782,842,0.705993,842,0.564106,842,0.114626,842,0.592802,842,0.404065,842,0.0755176,842,0.567873,842,0.362917,842,0.126454,842,0.601581,842,0.422178,842,0.15705,842,0.634449,842,0.454365,842,0.110615,842,0.58952,842,0.406025,
836,-0.00205761,836,0.516286,836,0.277825,836,0.221297,836,0.685417,836,0.532555,836,0.0717482,836,0.579003,836,0.357641,836,0.364428,836,0.0808578,836,0.590322,836,0.0857041,836,0.586843,836,0.369691,836,0.152135,836,0.638039,836,0.452551,836,0.250958,836,0.713111,836,0.559698,836,0.114911,836,0.600517,836,0.400393,836,0.0760361,836,0.575891,836,0.359417,836,0.127109,836,0.609649,836,0.418518,836,0.157503,836,0.642017,836,0.450898,836,0.111567,836,0.597858,836,0.402961,
830,-0.00201427,830,0.523166,830,0.27436,830,0.220223,830,0.690724,830,0.527656,830,0.0716691,830,0.585843,830,0.353966,830,0.360919,830,0.0807049,830,0.597091,830,0.0857316,830,0.593563,830,0.366059,830,0.15148,830,0.644196,830,0.448014,830,0.249024,830,0.718147,830,0.553406,830,0.114244,830,0.606735,830,0.396121,830,0.0757606,830,0.582466,830,0.35565,830,0.126447,830,0.61601,830,0.414097,830,0.156696,830,0.64789,830,0.446399,830,0.111408,830,0.604444,830,0.399069,
824,-0.00216781,824,0.529264,824,0.271404,824,0.217986,824,0.694657,824,0.521868,824,0.0709982,824,0.591493,824,0.35028,824,0.357269,824,0.0800876,824,0.602627,824,0.084948,824,0.598997,824,0.362204,824,0.14975,824,0.648752,824,0.442951,824,0.245544,824,0.721198,824,0.546115,824,0.112881,824,0.611799,824,0.391669,824,0.0750071,824,0.587907,824,0.351734,824,0.124876,824,0.620963,824,0.409213,824,0.155073,824,0.652376,824,0.441431,824,0.110458,824,0.609741,824,0.394783,
818,-0.00197139,818,0.534815,818,0.268957,818,0.215235,818,0.697653,818,0.515777,818,0.070177,818,0.596249,818,0.34667,818,0.353558,818,0.0791133,818,0.607185,818,0.0838702,818,0.603632,818,0.358364,818,0.147559,818,0.652412,818,0.437695,818,0.241572,818,0.723729,818,0.53861,818,0.111053,818,0.615894,818,0.387205,818,0.073796,818,0.592363,818,0.347847,818,0.122801,818,0.624927,818,0.404245,818,0.152883,818,0.655827,818,0.436338,818,0.108875,818,0.614064,818,0.390394,
812,-0.00194037,812,0.539845,812,0.266808,812,0.212369,812,0.700282,812,0.510058,812,0.0693498,812,0.600509,812,0.343639,812,0.350264,812,0.0780667,812,0.611264,812,0.0828277,812,0.607588,812,0.354951,812,0.145383,812,0.655576,812,0.432856,812,0.237609,812,0.725788,812,0.53158,812,0.109366,812,0.619655,812,0.38314,812,0.0726821,812,0.596517,812,0.344384,812,0.120857,812,0.628572,812,0.399619,812,0.150682,812,0.65918,812,0.431614,812,0.10744,812,0.617871,812,0.386347,
806,-0.00193439,806,0.544401,806,0.264894,806,0.209748,806,0.702824,806,0.504794,806,0.0684737,806,0.60448,806,0.340686,806,0.347189,806,0.0770398,806,0.615021,806,0.0816176,806,0.611301,806,0.351754,806,0.14318,806,0.658592,806,0.428327,806,0.234102,806,0.727733,806,0.525296,806,0.107689,806,0.623103,806,0.379312,806,0.071616,806,0.600367,806,0.341188,806,0.118937,806,0.631953,806,0.395405,806,0.148686,806,0.662149,806,0.427206,806,0.105914,806,0.621411,806,0.382521,
800,-0.001903,800,0.548946,800,0.263036,800,0.207591,800,0.705601,800,0.500242,800,0.0676692,800,0.608421,800,0.337885,800,0.344338,800,0.0761797,800,0.618799,800,0.0807041,800,0.615194,800,0.348808,800,0.1415,800,0.661727,800,0.424313,800,0.231367,800,0.73011,800,0.519885,800,0.106168,800,0.62678,800,0.37584,800,0.070679,800,0.60425,800,0.33823,800,0.11728,800,0.635504,800,0.391698,800,0.147093,800,0.66544,800,0.423422,800,0.104687,800,0.625149,800,0.379123,
794,0.00710834,794,0.192736,794,0.697142,794,0.172835,794,0.343878,794,0.918663,794,0.0580405,794,0.245614,794,0.754725,794,0.754632,794,0.0647896,794,0.243986,794,0.082327,794,0.25709,794,0.791813,794,0.128802,794,0.304885,794,0.854421,794,0.20317,794,0.370247,794,0.940781,794,0.0787981,794,0.252911,794,0.777308,794,0.0576089,794,0.233508,794,0.749162,794,0.0803427,794,0.256283,794,0.786987,794,0.136716,794,0.302959,794,0.846631,794,0.0986925,794,0.259887,794,0.793122,
788,0.00709363,788,0.191981,788,0.698501,788,0.17166,788,0.342203,788,0.91844,788,0.0576757,788,0.244479,788,0.755861,788,0.755254,788,0.0644952,788,0.242988,788,0.0818761,788,0.256085,788,0.792626,788,0.127706,788,0.303493,788,0.854298,788,0.201659,788,0.368657,788,0.939959,788,0.0779879,788,0.251578,788,0.777578,788,0.0569338,788,0.232183,788,0.749919,788,0.079505,788,0.254819,788,0.787202,788,0.135583,788,0.301531,788,0.84633,788,0.0978937,788,0.258741,788,0.793479,
782,0.00707708,782,0.191375,782,0.700413,782,0.170699,782,0.340804,782,0.919301,782,0.0574455,782,0.243721,782,0.757516,782,0.757123,782,0.0642414,782,0.242064,782,0.0815856,782,0.255263,782,0.794197,782,0.127027,782,0.302231,782,0.85556,782,0.200572,782,0.367153,782,0.940588,782,0.0773049,782,0.250398,782,0.778948,782,0.0565903,782,0.231379,782,0.75117,782,0.0787989,782,0.253747,782,0.788108,782,0.134763,782,0.300276,782,0.847218,782,0.0972023,782,0.257483,782,0.794719,
776,0.00701607,776,0.19043,776,0.702775,776,0.169247,776,0.338856,776,0.920017,776,0.0568573,776,0.242537,776,0.759463,776,0.759076,776,0.0638079,776,0.240914,776,0.0809371,776,0.253877,776,0.795822,776,0.125847,776,0.300375,776,0.85651,776,0.19887,776,0.365012,776,0.940975,776,0.076587,776,0.249045,776,0.780254,776,0.0560505,776,0.230212,776,0.752986,776,0.0780046,776,0.252344,776,0.789308,776,0.134016,776,0.298652,776,0.848713,776,0.0965608,776,0.256062,776,0.796249,
770,0.00684166,770,0.18929,770,0.705479,770,0.167506,770,0.336507,770,0.920833,770,0.0561473,770,0.240835,770,0.761619,770,0.761272,770,0.0630571,770,0.239236,770,0.0801705,770,0.252233,770,0.797862,770,0.124372,770,0.298236,770,0.857733,770,0.197121,770,0.362649,770,0.941533,770,0.0756095,770,0.247216,770,0.78209,770,0.055358,770,0.228566,770,0.755081,770,0.076951,770,0.250512,770,0.791181,770,0.132913,770,0.296768,770,0.849876,770,0.0955526,770,0.254424,770,0.797742,
764,0.00697819,764,0.188303,764,0.709367,764,0.165547,764,0.333867,764,0.921769,764,0.0557061,764,0.239188,764,0.764241,764,0.763912,764,0.0626967,764,0.237563,764,0.0793315,764,0.250432,764,0.800308,764,0.122905,764,0.295684,764,0.859069,764,0.194968,764,0.359732,764,0.941771,764,0.0743717,764,0.245094,764,0.78392,764,0.0544317,764,0.226678,764,0.757582,764,0.0754508,764,0.248306,764,0.792643,764,0.131016,764,0.294174,764,0.851654,764,0.0942076,764,0.252119,764,0.799626,
758,0.00689273,758,0.186866,758,0.713536,758,0.162607,758,0.330156,758,0.922027,758,0.054478,758,0.236954,758,0.767188,758,0.767044,758,0.0614177,758,0.235285,758,0.078203,758,0.248025,758,0.802978,758,0.120471,758,0.29243,758,0.860342,758,0.191654,758,0.355891,758,0.941485,758,0.0726092,758,0.242477,758,0.786086,758,0.0532297,758,0.224343,758,0.760237,758,0.0736669,758,0.245599,758,0.79429,758,0.128894,758,0.291253,758,0.852915,758,0.0924074,758,0.249472,758,0.80121,
752,0.00685699,752,0.185563,752,0.718388,752,0.159192,752,0.325776,752,0.922049,752,0.0533159,752,0.234377,752,0.770555,752,0.770422,752,0.0601648,752,0.232744,752,0.076432,752,0.245296,752,0.80572,752,0.117469,752,0.288537,752,0.861576,752,0.187633,752,0.351221,752,0.940797,752,0.070472,752,0.239246,752,0.788469,752,0.0517024,752,0.221624,752,0.763242,752,0.0712147,752,0.242399,752,0.796271,752,0.126399,752,0.287562,752,0.854247,752,0.0901511,752,0.246133,752,0.803302,
746,0.00713063,746,0.184201,746,0.72424,746,0.155091,746,0.320838,746,0.922234,746,0.0520409,746,0.231634,746,0.7747,746,0.774635,746,0.0587807,746,0.229997,746,0.0748418,746,0.242334,746,0.809226,746,0.114277,746,0.284172,746,0.863162,746,0.183119,746,0.345771,746,0.940209,746,0.0686219,746,0.235975,746,0.79144,746,0.0502614,746,0.21882,746,0.767169,746,0.0687915,746,0.238715,746,0.798427,746,0.123492,746,0.2835446,746,0.856017,746,0.0878391,746,0.242587,746,0.805537,
740,0.00722819,740,0.182391,740,0.731078,740,0.150466,740,0.315016,740,0.922095,740,0.0504375,740,0.228297,740,0.779179,740,0.779139,740,0.057211,740,0.226546,740,0.0730174,740,0.238628,740,0.812985,740,0.110505,740,0.279003,740,0.864758,740,0.177697,740,0.339239,740,0.939616,740,0.0657018,740,0.231685,740,0.794576,740,0.0484973,740,0.215272,740,0.771172,740,0.0657063,740,0.234239,740,0.800835,740,0.119762,740,0.278505,740,0.857717,740,0.0848055,740,0.238128,740,0.808197,
734,0.00694673,734,0.179776,734,0.738143,734,0.144955,734,0.308099,734,0.922368,734,0.0482106,734,0.223665,734,0.784064,734,0.783946,734,0.0549481,734,0.222164,734,0.0703947,734,0.234023,734,0.817181,734,0.105949,734,0.272721,734,0.866786,734,0.171582,734,0.331768,734,0.939123,734,0.0624565,734,0.226603,734,0.798192,734,0.0460569,734,0.210816,734,0.775737,734,0.0620999,734,0.22901,734,0.803398,734,0.115694,734,0.272683,734,0.859988,734,0.0814298,734,0.232817,734,0.811265,
728,0.00672894,728,0.176961,728,0.74673,728,0.139371,728,0.300831,728,0.923496,728,0.0460777,728,0.219261,728,0.790369,728,0.790345,728,0.0526954,728,0.217566,728,0.0678957,728,0.22929,728,0.822653,728,0.101568,728,0.266193,728,0.870123,728,0.165292,728,0.323767,728,0.93962,728,0.0593354,728,0.221364,728,0.802826,728,0.0438167,728,0.206156,728,0.781601,728,0.0583865,728,0.223312,728,0.807363,728,0.111495,728,0.266367,728,0.863187,728,0.0780124,728,0.227303,728,0.81529,
722,0.00660537,722,0.174097,722,0.757178,722,0.133908,722,0.293443,722,0.92635,722,0.0440068,722,0.214367,722,0.798011,722,0.798213,722,0.0506221,722,0.212999,722,0.0653976,722,0.224185,722,0.82968,722,0.0971727,722,0.259451,722,0.874883,722,0.158988,722,0.315577,722,0.941894,722,0.0561243,722,0.215852,722,0.809078,722,0.0415478,722,0.201469,722,0.789031,722,0.0549532,722,0.217649,722,0.812923,722,0.107263,722,0.259945,722,0.867961,722,0.0746556,722,0.221721,722,0.821003,
716,0.00662061,716,0.170957,716,0.768992,716,0.12855,716,0.285738,716,0.931096,716,0.0420264,716,0.209409,716,0.807532,716,0.807769,716,0.0486219,716,0.208028,716,0.0631282,716,0.219025,716,0.838635,716,0.0930441,716,0.252604,716,0.881593,716,0.152981,716,0.307342,716,0.946024,716,0.0529781,716,0.210053,716,0.81724,716,0.0393627,716,0.196442,716,0.798061,716,0.0515342,716,0.211718,716,0.820154,716,0.103042,716,0.253288,716,0.874207,716,0.0714648,716,0.215693,716,0.828382,
710,0.00663888,710,0.167445,710,0.782826,710,0.123342,710,0.277974,710,0.937908,710,0.0401613,710,0.204095,710,0.8191,710,0.819177,710,0.046654,710,0.202733,710,0.0608298,710,0.213579,710,0.849431,710,0.0888836,710,0.245669,710,0.890424,710,0.147175,710,0.298764,710,0.952328,710,0.0499943,710,0.204081,710,0.827246,710,0.0372861,710,0.191097,710,0.809242,710,0.0482207,710,0.205463,710,0.82951,710,0.0990492,710,0.246322,710,0.882805,710,0.0683188,710,0.209552,710,0.837964,
704,0.0065069,704,0.163505,704,0.798883,704,0.118325,704,0.269761,704,0.947119,704,0.0381933,704,0.198496,704,0.83268,704,0.832945,704,0.0447502,704,0.197145,704,0.0586016,704,0.207718,704,0.862386,704,0.0850852,704,0.238285,704,0.901667,704,0.141416,704,0.29,704,0.960903,704,0.0472894,704,0.197875,704,0.83971,704,0.0354727,704,0.185605,704,0.822483,704,0.0450856,704,0.199181,704,0.841086,704,0.0953378,704,0.239168,704,0.893804,704,0.065532,704,0.203251,704,0.849791,
698,0.00656003,698,0.159229,698,0.817222,698,0.113409,698,0.261376,698,0.958977,698,0.0363975,698,0.192481,698,0.848629,698,0.848934,698,0.0428597,698,0.191258,698,0.0564738,698,0.201615,698,0.877873,698,0.0812558,698,0.230678,698,0.915411,698,0.135803,698,0.280962,698,0.972241,698,0.0444467,698,0.1913,698,0.854311,698,0.0334323,698,0.179627,698,0.838059,698,0.0421189,698,0.192381,698,0.855179,698,0.0915975,698,0.231711,698,0.907006,698,0.0625153,698,0.196517,698,0.863788,
692,0.00640543,692,0.154606,692,0.838131,692,0.108535,692,0.252857,692,0.973516,692,0.0345072,692,0.186325,692,0.867157,692,0.867481,692,0.0410357,692,0.18504,692,0.0543967,692,0.195281,692,0.895692,692,0.0776268,692,0.222975,692,0.931884,692,0.130462,692,0.271835,692,0.986091,692,0.041781,692,0.184573,692,0.87161,692,0.0315817,692,0.173526,692,0.856271,692,0.0391588,692,0.18552,692,0.871576,692,0.0878643,692,0.224057,692,0.922795,692,0.0596912,692,0.18963,692,0.880531,
686,0.00636056,686,0.149889,686,0.861378,686,0.103867,686,0.244246,686,0.990402,686,0.0326818,686,0.180033,686,0.888062,686,0.888498,686,0.0392994,686,0.178856,686,0.0523323,686,0.188814,686,0.915952,686,0.0739726,686,0.215224,686,0.950971,686,0.125121,686,0.262614,686,1.00258,686,0.0392442,686,0.177891,686,0.891202,686,0.0299062,686,0.167357,686,0.876945,686,0.0363303,686,0.178613,686,0.890631,686,0.0844257,686,0.216352,686,0.940936,686,0.0571114,686,0.182753,686,0.899492,
680,0.00639156,680,0.145242,680,0.886574,680,0.0993272,680,0.235751,680,1.00952,680,0.03105,680,0.173855,680,0.910927,680,0.911369,680,0.0375177,680,0.172688,680,0.0505419,680,0.182551,680,0.938163,680,0.0705472,680,0.207505,680,0.972054,680,0.119919,680,0.253467,680,1.02098,680,0.0367321,680,0.17109,680,0.91291,680,0.0282116,680,0.161246,680,0.899211,680,0.0336296,680,0.171715,680,0.911386,680,0.0810693,680,0.208679,680,0.961007,680,0.0545269,680,0.175948,680,0.92054,
674,0.00634417,674,0.141007,674,0.912553,674,0.0947583,674,0.227579,674,1.02936,674,0.0293474,674,0.167909,674,0.934399,674,0.935051,674,0.0358396,674,0.166844,674,0.0485999,674,0.176556,674,0.961272,674,0.0672509,674,0.200247,674,0.994219,674,0.114832,674,0.244657,674,1.0402,674,0.0341308,674,0.164528,674,0.934952,674,0.026385,674,0.155322,674,0.922341,674,0.0308793,674,0.165075,674,0.932958,674,0.0775258,674,0.201223,674,0.981947,674,0.0518607,674,0.169274,674,0.942312,
668,0.0064564,668,0.137382,668,0.93708,668,0.0905204,668,0.220134,668,1.0481,668,0.0277494,668,0.162734,668,0.956742,668,0.957436,668,0.0343068,668,0.161819,668,0.0468448,668,0.171349,668,0.983135,668,0.0640511,668,0.193767,668,1.01494,668,0.109796,668,0.236537,668,1.05833,668,0.0317519,668,0.158862,668,0.956074,668,0.0247464,668,0.150249,668,0.944353,668,0.0282776,668,0.159296,668,0.953569,668,0.0742335,668,0.194668,668,1.00157,668,0.0494184,668,0.163437,668,0.962961,
662,0.00636986,662,0.134996,662,0.956823,662,0.0862616,662,0.213957,662,1.06239,662,0.0261055,662,0.158777,662,0.9745,662,0.975133,662,0.0327108,662,0.157928,662,0.0452609,662,0.16735,662,1.00057,662,0.0609689,662,0.1883993,662,1.03101,662,0.104921,662,0.229553,662,1.07189,662,0.0294562,662,0.154333,662,0.972841,662,0.0231807,662,0.146335,662,0.961862,662,0.025748,662,0.154656,662,0.969626,662,0.0709691,662,0.189198,662,1.01704,662,0.0471609,662,0.158975,662,0.979233,
656,0.00643574,656,0.134342,656,0.967452,656,0.0823899,656,0.209561,656,1.06795,656,0.0245915,656,0.156608,656,0.983479,656,0.98433,656,0.0311888,656,0.155789,656,0.0437698,656,0.165228,656,1.00955,656,0.0581682,656,0.18506,656,1.03828,656,0.100298,656,0.224427,656,1.07704,656,0.0271413,656,0.151534,656,0.981007,656,0.0216378,656,0.144182,656,0.970853,656,0.0233969,656,0.151756,656,0.977427,656,0.0679197,656,0.185534,656,1.02407,656,0.0449831,656,0.156138,656,0.987233,
650,0.0064942,650,0.135751,650,0.96437,650,0.0786407,650,0.207397,650,1.06023,650,0.0231666,650,0.156548,650,0.979051,650,0.980173,650,0.0298852,650,0.155952,650,0.0423953,650,0.165257,650,1.00516,650,0.0555153,650,0.183879,650,1.0317,650,0.0959109,650,0.221545,650,1.0689,650,0.0249467,650,0.150897,650,0.975901,650,0.0201135,650,0.14404,650,0.966708,650,0.021084,650,0.15106,650,0.972372,650,0.064985,650,0.184088,650,1.01808,650,0.0428275,650,0.155413,650,0.982342,
644,0.00658021,644,0.13986,644,0.945343,644,0.0754331,644,0.20809,644,1.03701,644,0.022051,644,0.159217,644,0.959219,644,0.960488,644,0.0286716,644,0.15869,644,0.0412654,644,0.168007,644,0.985647,644,0.0533224,644,0.185462,644,1.00948,644,0.0919198,644,0.221461,644,1.04559,644,0.0228792,644,0.152899,644,0.955444,644,0.0187633,644,0.146585,644,0.94727,644,0.0189502,644,0.152973,644,0.951949,644,0.0622939,644,0.185202,644,0.997104,644,0.0409649,644,0.1574,644,0.962228,
638,0.00663701,638,0.146114,638,0.913195,638,0.0722109,638,0.211034,638,1.00099,638,0.0207802,638,0.164215,638,0.926534,638,0.927939,638,0.0274487,638,0.16375,638,0.0400532,638,0.173017,638,0.953163,638,0.0511297,638,0.189419,638,0.97419,638,0.0882245,638,0.223825,638,1.00943,638,0.0210201,638,0.157307,638,0.922361,638,0.0175116,638,0.151568,638,0.915096,638,0.0170697,638,0.157361,638,0.919124,638,0.0595746,638,0.188835,638,0.963487,638,0.0392943,638,0.161858,638,0.929593,
632,0.00666887,632,0.153679,632,0.877083,632,0.0694548,632,0.215548,632,0.961084,632,0.0198201,632,0.17053,632,0.889686,632,0.891285,632,0.0264638,632,0.170205,632,0.0389946,632,0.179328,632,0.916604,632,0.0491899,632,0.194919,632,0.93493,632,0.0847619,632,0.227582,632,0.969386,632,0.0192808,632,0.163057,632,0.885121,632,0.0162338,632,0.157723,632,0.878613,632,0.0153244,632,0.162952,632,0.881741,632,0.0570678,632,0.193742,632,0.925402,632,0.0374581,632,0.167518,632,0.892567,
626,0.00662058,626,0.159982,626,0.848317,626,0.0666561,626,0.21893,626,0.928583,626,0.0187065,626,0.175776,626,0.860099,626,0.861852,626,0.0252615,626,0.175396,626,0.0377705,626,0.184568,626,0.887021,626,0.0471191,626,0.199185,626,0.903366,626,0.0811878,626,0.230259,626,0.936504,626,0.0175993,626,0.167875,626,0.854921,626,0.0150903,626,0.163004,626,0.849255,626,0.0136966,626,0.16783,626,0.851817,626,0.0546269,626,0.197657,626,0.894686,626,0.0357113,626,0.172336,626,0.862631,
620,0.0064879,620,0.162407,620,0.837394,620,0.0638164,620,0.218734,620,0.914008,620,0.0176599,620,0.1773,620,0.848057,620,0.849912,620,0.0241131,620,0.17695,620,0.0365105,620,0.186048,620,0.8749,620,0.0451688,620,0.199931,620,0.889766,620,0.0776388,620,0.229502,620,0.921307,620,0.0160218,620,0.169034,620,0.842304,620,0.0140193,620,0.164633,620,0.837256,620,0.0121348,620,0.169093,620,0.838999,620,0.0522557,620,0.198003,620,0.881035,620,0.0340482,620,0.173572,620,0.849872,
614,0.006443,614,0.160192,614,0.848602,614,0.0609974,614,0.213924,614,0.921416,614,0.0166929,614,0.174182,614,0.85792,614,0.859642,614,0.0230939,614,0.173787,614,0.0354009,614,0.182739,614,0.884445,614,0.0433207,614,0.196096,614,0.898645,614,0.0742751,614,0.224054,614,0.928068,614,0.0145159,614,0.165571,614,0.851325,614,0.0129167,614,0.161465,614,0.846683,614,0.0106932,614,0.165505,614,0.847668,614,0.0498376,614,0.193602,614,0.889027,614,0.0325358,614,0.170001,614,0.858607,
608,0.00648359,608,0.155428,608,0.872937,608,0.0583097,608,0.206869,608,0.942305,608,0.0157967,608,0.168633,608,0.880787,608,0.882777,608,0.0221263,608,0.168225,608,0.0344363,608,0.177109,608,0.907077,608,0.0415952,608,0.1898,608,0.921048,608,0.0708715,608,0.216305,608,0.948176,608,0.0132496,608,0.159679,608,0.873543,608,0.0120107,608,0.155912,608,0.869352,608,0.00926404,608,0.159573,608,0.869547,608,0.0478038,608,0.186971,608,0.91018,608,0.0311745,608,0.163992,608,0.88046,
602,0.006561,602,0.153977,602,0.883617,602,0.055921,602,0.203117,602,0.950073,602,0.0148659,602,0.166205,602,0.89053,602,0.892602,602,0.021424,602,0.165845,602,0.0338322,602,0.174779,602,0.917127,602,0.0402502,602,0.18686,602,0.930129,602,0.0679649,602,0.211939,602,0.955555,602,0.012026,602,0.157018,602,0.882984,602,0.0112977,602,0.153527,602,0.879434,602,0.00800858,602,0.156961,602,0.878982,602,0.0461708,602,0.183705,602,0.919104,602,0.0302475,602,0.161396,602,0.890058,
596,0.00682528,596,0.161158,596,0.853468,596,0.054162,596,0.208144,596,0.917449,596,0.0142545,596,0.172434,596,0.860399,596,0.862656,596,0.0210705,596,0.172353,596,0.0335842,596,0.181298,596,0.887574,596,0.0393263,596,0.192796,596,0.898344,596,0.0656582,596,0.216406,596,0.923173,596,0.0109848,596,0.162855,596,0.852906,596,0.0108318,596,0.159772,596,0.850048,596,0.00694068,596,0.162677,596,0.848975,596,0.0448099,596,0.188951,596,0.888715,596,0.0297867,596,0.167318,596,0.860509,
590,0.00686656,590,0.177323,590,0.788074,590,0.0527951,590,0.222463,590,0.850073,590,0.0137476,590,0.188011,590,0.79521,590,0.797691,590,0.0205845,590,0.187934,590,0.0333971,590,0.196974,590,0.822868,590,0.0385899,590,0.207868,590,0.83117,590,0.0637575,590,0.230162,590,0.855811,590,0.0103773,590,0.178152,590,0.788148,590,0.010377,590,0.175303,590,0.785943,590,0.0062377,590,0.177921,590,0.784736,590,0.0439131,590,0.203753,590,0.823818,590,0.0294118,590,0.182603,590,0.796559,
584,0.0069002,584,0.198892,584,0.716816,584,0.051572,584,0.24224,584,0.776859,584,0.0133729,584,0.208884,584,0.724177,584,0.72665,584,0.0200719,584,0.208848,584,0.0329164,584,0.217801,584,0.752207,584,0.0378596,584,0.228377,584,0.758196,584,0.062202,584,0.249443,584,0.782552,584,0.00976248,584,0.19893,584,0.717334,584,0.0100386,584,0.196268,584,0.715457,584,0.00579373,584,0.198808,584,0.71413,584,0.04288,584,0.2239,584,0.752787,584,0.0287172,584,0.203407,584,0.72613,
578,0.0067968,578,0.220013,578,0.658241,578,0.050532,578,0.261757,578,0.716283,578,0.0129257,578,0.22956,578,0.665469,578,0.668107,578,0.0195302,578,0.22951,578,0.0322823,578,0.23848,578,0.693708,578,0.0370131,578,0.248783,578,0.698015,578,0.0606111,578,0.268583,578,0.721878,578,0.00923007,578,0.219576,578,0.658909,578,0.00971547,578,0.217193,578,0.657437,578,0.00537003,578,0.219484,578,0.65587,578,0.0418816,578,0.244,578,0.693881,578,0.0282101,578,0.224156,578,0.667842,
572,0.00672797,572,0.238379,572,0.615521,572,0.0494508,572,0.278915,572,0.671778,572,0.0125103,572,0.24767,572,0.622499,572,0.625271,572,0.0190237,572,0.247535,572,0.0318699,572,0.256471,572,0.650902,572,0.0364384,572,0.266393,572,0.654045,572,0.0590561,572,0.285231,572,0.67712,572,0.00894411,572,0.237702,572,0.616036,572,0.00952994,572,0.235502,572,0.615002,572,0.0051509,572,0.237613,572,0.613267,572,0.0411218,572,0.261541,572,0.650632,572,0.0278199,572,0.242237,572,0.625372,
566,0.00678226,566,0.252026,566,0.587753,566,0.0484506,566,0.291227,566,0.642416,566,0.012268,566,0.260859,566,0.5945,566,0.597281,566,0.0187587,566,0.260838,566,0.0314928,566,0.269674,566,0.62287,566,0.0358681,566,0.279356,566,0.62527,566,0.0577153,566,0.297299,566,0.64743,566,0.0086908,566,0.251085,566,0.588202,566,0.00935547,566,0.248968,566,0.587421,566,0.00501437,566,0.250992,566,0.58535,566,0.0403069,566,0.274346,566,0.622277,566,0.0275292,566,0.25552,566,0.597506,
560,0.0066945,560,0.254582,560,0.583959,560,0.0472538,560,0.292678,560,0.637116,560,0.0118956,560,0.263186,560,0.590192,560,0.593073,560,0.0184267,560,0.263066,560,0.0310185,560,0.271832,560,0.618719,560,0.0353358,560,0.281477,560,0.620704,560,0.0562976,560,0.29841,560,0.641844,560,0.00832265,560,0.253405,560,0.584041,560,0.00926267,560,0.251402,560,0.583345,560,0.00469478,560,0.253257,560,0.581178,560,0.0394474,560,0.276159,560,0.617532,560,0.0271547,560,0.257874,560,0.593255,
554,0.00669361,554,0.257719,554,0.578889,554,0.0461909,554,0.294933,554,0.630735,554,0.0116462,554,0.266124,554,0.584807,554,0.587743,554,0.0180597,554,0.265996,554,0.0307421,554,0.27479,554,0.613307,554,0.0348204,554,0.284146,554,0.614994,554,0.0548551,554,0.300364,554,0.635151,554,0.00813872,554,0.256387,554,0.57869,554,0.00916193,554,0.254568,554,0.578241,554,0.00444673,554,0.256384,554,0.575875,554,0.0387799,554,0.278705,554,0.611721,554,0.0269262,554,0.261029,554,0.587943,
548,0.00667802,548,0.260136,548,0.575699,548,0.0454378,548,0.296485,548,0.626505,548,0.0114592,548,0.26834,548,0.581454,548,0.584439,548,0.0179286,548,0.26824,548,0.0306232,548,0.277074,548,0.609928,548,0.0345316,548,0.286279,548,0.611303,548,0.0537807,548,0.301745,548,0.63064,548,0.00810172,548,0.258782,548,0.575411,548,0.00906563,548,0.257041,548,0.575038,548,0.00447443,548,0.258697,548,0.572416,548,0.038326,548,0.280659,548,0.607975,548,0.0269305,548,0.263341,548,0.584685,
542,0.00655669,542,0.256412,542,0.584465,542,0.044422,542,0.292025,542,0.634281,542,0.0111729,542,0.264455,542,0.589898,542,0.592896,542,0.0175502,542,0.264315,542,0.030035,542,0.272917,542,0.618339,542,0.0340831,542,0.282244,542,0.619612,542,0.0525905,542,0.297122,542,0.638077,542,0.00785375,542,0.25503,542,0.583959,542,0.00894337,542,0.253295,542,0.583627,542,0.00435277,542,0.255027,542,0.580988,542,0.0374906,542,0.276421,542,0.616089,542,0.0264466,542,0.259464,542,0.59307,
536,0.00657483,536,0.252739,536,0.593518,536,0.0435621,536,0.287692,536,0.642496,536,0.010999,536,0.260589,536,0.598716,536,0.6017,536,0.0174144,536,0.260422,536,0.0299561,536,0.269154,536,0.627113,536,0.0337801,536,0.278368,536,0.62828,536,0.0516249,536,0.292637,536,0.646034,536,0.00777755,536,0.251287,536,0.592765,536,0.00901092,536,0.24958,536,0.592627,536,0.00418173,536,0.251421,536,0.589828,536,0.0370988,536,0.272374,536,0.624429,536,0.0266021,536,0.255903,536,0.602033,
530,0.00658069,530,0.250521,530,0.599524,530,0.0430057,530,0.285103,530,0.648056,530,0.0110131,530,0.258339,530,0.604677,530,0.607683,530,0.0173988,530,0.25826,530,0.0299392,530,0.267062,530,0.633099,530,0.0336854,530,0.276101,530,0.634321,530,0.0509322,530,0.289968,530,0.651317,530,0.00780385,530,0.249232,530,0.598774,530,0.00910557,530,0.247622,530,0.598652,530,0.00427149,530,0.249254,530,0.595766,530,0.0367936,530,0.270015,530,0.630119,530,0.0266668,530,0.253922,530,0.608117,
524,0.00667121,524,0.24889,524,0.605083,524,0.0425853,524,0.28304,524,0.653087,524,0.0109442,524,0.256713,524,0.610093,524,0.613204,524,0.0174192,524,0.256558,524,0.0300117,524,0.2653,524,0.638559,524,0.0336429,524,0.274358,524,0.639768,524,0.0505118,524,0.287897,524,0.656356,524,0.00782254,524,0.247549,524,0.604135,524,0.00909402,524,0.245926,524,0.604096,524,0.00432793,524,0.247677,524,0.601326,524,0.03654,524,0.267972,524,0.635322,524,0.0267219,524,0.252194,524,0.613528,
518,0.00663441,518,0.247051,518,0.610538,518,0.0422769,518,0.280914,518,0.658194,518,0.0109932,518,0.254837,518,0.615512,518,0.618577,518,0.0174025,518,0.254745,518,0.0299862,518,0.26351,518,0.643997,518,0.0336879,518,0.272625,518,0.645123,518,0.0501148,518,0.285754,518,0.661365,518,0.00786624,518,0.245861,518,0.609576,518,0.00924564,518,0.244239,518,0.60967,518,0.00438405,518,0.245971,518,0.606743,518,0.0362992,518,0.266031,518,0.640487,518,0.0268452,518,0.250553,518,0.61896,
512,0.00665475,512,0.2453,512,0.616304,512,0.0420755,512,0.279004,512,0.663739,512,0.0109726,512,0.253135,512,0.621218,512,0.624255,512,0.0173995,512,0.252906,512,0.0298796,512,0.261723,512,0.649589,512,0.0336746,512,0.270855,512,0.65091,512,0.0498252,512,0.283769,512,0.666696,512,0.0080542,512,0.244185,512,0.615411,512,0.00943057,512,0.24262,512,0.615474,512,0.00462366,512,0.244366,512,0.612575,512,0.0362137,512,0.264186,512,0.646166,512,0.0270441,512,0.249026,512,0.624909,
506,0.00666524,506,0.243354,506,0.622357,506,0.0419361,506,0.276927,506,0.669826,506,0.01096,506,0.251224,506,0.627258,506,0.630506,506,0.01745,506,0.251036,506,0.0300108,506,0.259799,506,0.655885,506,0.0338088,506,0.269036,506,0.657233,506,0.0498605,506,0.281928,506,0.672861,506,0.00819514,506,0.242371,506,0.621642,506,0.00951346,506,0.240791,506,0.621573,506,0.00472296,506,0.242607,506,0.618825,506,0.0362023,506,0.262193,506,0.652119,506,0.027163,506,0.247191,506,0.631152,
500,0.00658897,500,0.241367,500,0.62879,500,0.0418409,500,0.274933,500,0.676532,500,0.0110323,500,0.249284,500,0.633905,500,0.637058,500,0.0174668,500,0.249147,500,0.0301244,500,0.257909,500,0.662393,500,0.0339869,500,0.267254,500,0.663872,500,0.0499917,500,0.280084,500,0.679484,500,0.00826468,500,0.240509,500,0.628218,500,0.00957178,500,0.238846,500,0.628185,500,0.00489204,500,0.240806,500,0.625376,500,0.0361582,500,0.260201,500,0.658682,500,0.0273852,500,0.245336,500,0.637663,