File: DichroicRatioFromUVData-master 2/DataParse2/12-13.csv
pdms,,pdms-0,,pdms-90,,30-10,,30-10-0,,30-10-90,,30-10-90-2,,30-10-0-2,,
Wavelength (nm),Abs,Wavelength (nm),Abs,Wavelength (nm),Abs,Wavelength (nm),Abs,Wavelength (nm),Abs,Wavelength (nm),Abs,Wavelength (nm),Abs,Wavelength (nm),Abs,
1100,0.00407816,1100,0.250715,1100,0.52191,1100,0.035761,1100,0.277045,1100,0.555055,1100,0.552606,1100,0.276868,
1098,0.000791148,1098,0.248841,1098,0.515999,1098,0.0323017,1098,0.275267,1098,0.549334,1098,0.547698,1098,0.275762,
1096,-0.00302159,1096,0.246706,1096,0.509459,1096,0.028954,1096,0.273565,1096,0.542987,1096,0.541447,1096,0.274218,
1094,-0.00778948,1094,0.243475,1094,0.501466,1094,0.0248729,1094,0.27117,1094,0.535293,1094,0.533847,1094,0.271308,
1092,-0.0113913,1092,0.241873,1092,0.493877,1092,0.0222552,1092,0.270249,1092,0.528225,1092,0.526324,1092,0.26964,
1090,-0.0127713,1090,0.243215,1090,0.488337,1090,0.0218217,1090,0.272139,1090,0.523078,1090,0.520559,1090,0.270584,
1088,-0.0108059,1088,0.247455,1088,0.487589,1088,0.02467997,1088,0.277097,1088,0.522882,1088,0.519421,1088,0.274122,
1086,-0.00617826,1086,0.253374,1086,0.491364,1086,0.0294558,1086,0.282976,1086,0.526914,1086,0.522467,1086,0.279493,
1084,-0.000826994,1084,0.259665,1084,0.495057,1084,0.0345201,1084,0.289095,1084,0.530711,1084,0.526221,1084,0.285694,
1082,0.00351816,1082,0.265031,1082,0.497678,1082,0.0380868,1082,0.293626,1082,0.533238,1082,0.529452,1082,0.29157,
1080,0.00403949,1080,0.266474,1080,0.4971,1080,0.0379092,1080,0.294628,1080,0.532393,1080,0.529813,1080,0.293899,
1078,0.000444845,1078,0.263522,1078,0.491981,1078,0.0343211,1078,0.291742,1078,0.527318,1078,0.525427,1078,0.292027,
1076,-0.0053184,1076,0.258314,1076,0.484089,1076,0.028987,1076,0.287056,1076,0.51972,1076,0.518566,1076,0.2876,
1074,-0.0109357,1074,0.253686,1074,0.477131,1074,0.0244014,1074,0.283306,1074,0.513252,1074,0.511751,1074,0.28308,
1072,-0.0128862,1072,0.252863,1072,0.474,1072,0.0238486,1072,0.283758,1072,0.510871,1072,0.508008,1072,0.281585,
1070,-0.00936004,1070,0.257677,1070,0.475862,1070,0.0281388,1070,0.288834,1070,0.513309,1070,0.509466,1070,0.285707,
1068,-0.00297393,1068,0.265406,1068,0.481509,1068,0.0344959,1068,0.296554,1068,0.519122,1068,0.514736,1068,0.293079,
1066,0.00306341,1066,0.272437,1066,0.486028,1066,0.0394687,1066,0.302649,1066,0.523639,1066,0.519799,1066,0.300546,
1064,0.00276611,1064,0.272914,1064,0.48414,1064,0.038522,1064,0.302561,1064,0.521349,1064,0.519212,1064,0.302406,
1062,-0.00313165,1062,0.267746,1062,0.476918,1062,0.0327643,1062,0.297796,1062,0.514456,1062,0.51307,1062,0.298178,
1060,-0.0102348,1060,0.261252,1060,0.467762,1060,0.026767,1060,0.292251,1060,0.50573,1060,0.504328,1060,0.292253,
1058,-0.0127139,1058,0.259936,1058,0.464219,1058,0.0258282,1058,0.292254,1058,0.503224,1058,0.50038,1058,0.290125,
1056,-0.00742559,1056,0.266624,1056,0.468227,1056,0.0319872,1056,0.299611,1056,0.507659,1056,0.503557,1056,0.296065,
1054,0.000700392,1054,0.276134,1054,0.475472,1054,0.0395042,1054,0.308332,1054,0.515007,1054,0.510815,1054,0.305461,
1052,0.00342242,1052,0.279705,1052,0.476366,1052,0.0411887,1052,0.311021,1052,0.515775,1052,0.513141,1052,0.310222,
1050,-0.00267215,1050,0.274228,1050,0.469056,1050,0.0350265,1050,0.305863,1050,0.508512,1050,0.5071,1050,0.306231,
1048,-0.0109624,1048,0.266646,1048,0.458686,1048,0.0279705,1048,0.299469,1048,0.498806,1048,0.497375,1048,0.299069,
1046,-0.0123609,1046,0.266537,1046,0.456474,1046,0.0283114,1046,0.300642,1046,0.49745,1046,0.494508,1046,0.298172,
1044,-0.00416526,1044,0.276184,1044,0.463233,1044,0.0370482,1044,0.310375,1044,0.504946,1044,0.500728,1044,0.306886,
1042,0.00323133,1042,0.284683,1042,0.46952,1042,0.0431835,1042,0.318022,1042,0.510993,1042,0.507557,1042,0.316213,
1040,-5.09924e-05,1040,0.282185,1040,0.464878,1040,0.0395043,1040,0.315194,1040,0.506271,1040,0.504719,1040,0.315505,
1038,-0.00948223,1038,0.273271,1038,0.453418,1038,0.0309342,1038,0.307303,1038,0.495412,1038,0.494251,1038,0.307283,
1036,-0.0117626,1036,0.272396,1036,0.450099,1036,0.0309092,1036,0.307958,1036,0.493239,1036,0.490167,1036,0.305414,
1034,-0.00279161,1034,0.282978,1034,0.458219,1034,0.0403115,1034,0.318854,1034,0.502076,1034,0.497712,1034,0.315308,
1032,0.00366516,1032,0.290474,1032,0.46305,1032,0.0456039,1032,0.325328,1032,0.506577,1032,0.503734,1032,0.323927,
1030,-0.00251452,1030,0.284763,1030,0.455332,1030,0.0391077,1030,0.319643,1030,0.499056,1030,0.497725,1030,0.320134,
1028,-0.0115466,1028,0.276702,1028,0.445012,1028,0.0319113,1028,0.313388,1028,0.48963,1028,0.487601,1028,0.312067,
1026,-0.00707275,1026,0.282762,1026,0.448174,1026,0.0381707,1026,0.320543,1026,0.493936,1026,0.490083,1026,0.316942,
1024,0.00279909,1024,0.294115,1024,0.456714,1024,0.0473944,1024,0.3311,1024,0.502695,1024,0.499126,1024,0.328657,
1022,0.000602759,1022,0.292561,1022,0.452927,1022,0.044201,1022,0.328963,1022,0.498922,1022,0.497363,1022,0.329042,
1020,-0.0101543,1020,0.282477,1020,0.440667,1020,0.0350429,1020,0.320608,1020,0.487559,1020,0.485745,1020,0.319766,
1018,-0.00803711,1018,0.286284,1018,0.44168,1018,0.0391869,1018,0.325759,1018,0.489846,1018,0.485932,1018,0.322444,
1016,0.00272321,1016,0.298656,1016,0.451318,1016,0.0495699,1016,0.33761,1016,0.499803,1016,0.496043,1016,0.335019,
1014,-0.000241242,1014,0.296346,1014,0.446583,1014,0.0457351,1014,0.33472,1014,0.494961,1014,0.493599,1014,0.334986,
1012,-0.0110784,1012,0.28626,1012,0.433927,1012,0.0366949,1012,0.326513,1012,0.483599,1012,0.481644,1012,0.325446,
1010,-0.00612656,1010,0.293005,1010,0.437835,1010,0.0435686,1010,0.334519,1010,0.488769,1010,0.484686,1010,0.331019,
1008,0.0032434,1008,0.303704,1008,0.44594,1008,0.0521401,1008,0.344488,1008,0.497228,1008,0.493881,1008,0.342646,
1006,-0.00485824,1006,0.296247,1006,0.43617,1006,0.0438654,1006,0.337198,1006,0.487575,1006,0.486275,1006,0.337444,
1004,-0.0114533,1004,0.290888,1004,0.428036,1004,0.0398664,1004,0.334022,1004,0.481026,1004,0.477973,1004,0.331606,
1002,-0.000871741,1002,0.303402,1002,0.437706,1002,0.0512499,1002,0.3469,1002,0.49165,1002,0.487364,1002,0.343494,
1000,0.000705188,1000,0.305898,1000,0.437651,1000,0.0516514,1000,0.3485,1000,0.491615,1000,0.489762,1000,0.348351,
998,-0.0114267,998,0.294667,998,0.423646,998,0.0414674,998,0.339256,998,0.478932,998,0.476973,998,0.337991,
996,-0.0045821,996,0.303425,996,0.429271,996,0.0502614,996,0.349213,996,0.486038,996,0.481877,996,0.345561,
994,0.0024068,994,0.31168,994,0.434812,994,0.0561288,994,0.356542,994,0.49187,994,0.489426,994,0.355658,
992,-0.0100071,992,0.300058,992,0.420446,992,0.045017,992,0.346371,992,0.478515,992,0.476991,992,0.345797,
990,-0.00662561,990,0.305335,990,0.42252,990,0.0510374,990,0.353575,990,0.48238,990,0.478303,990,0.349911,
988,0.00248909,988,0.316067,988,0.430321,988,0.0592429,988,0.363333,988,0.490487,988,0.48796,988,0.362186,
986,-0.00915058,986,0.305113,986,0.416754,986,0.0485278,986,0.353599,986,0.477954,986,0.476531,986,0.353194,
984,-0.00675556,984,0.309489,984,0.417944,984,0.0538819,984,0.36022,984,0.481057,984,0.477054,984,0.356471,
982,0.0021123,982,0.319861,982,0.425275,982,0.0617757,982,0.369609,982,0.488873,982,0.486405,982,0.368597,
980,-0.0103171,980,0.308194,980,0.410782,980,0.0507454,980,0.359615,980,0.475711,980,0.474067,980,0.358822,
978,-0.00471548,978,0.315998,978,0.414962,978,0.0590837,978,0.369253,978,0.48181,978,0.47774,978,0.365494,
976,0.000337788,976,0.322438,976,0.418416,976,0.0631484,976,0.37493,976,0.485794,976,0.483879,976,0.374386,
974,-0.0118428,974,0.31134,974,0.404302,974,0.0533458,974,0.36621,974,0.47352,974,0.4711,974,0.364249,
972,-0.000735005,972,0.32478,972,0.414065,972,0.066278,972,0.380621,972,0.484946,972,0.48088,972,0.37725,
970,-0.00401868,970,0.322599,970,0.408816,970,0.0624361,970,0.378238,970,0.4803,970,0.479042,970,0.378086,
968,-0.00993828,968,0.318247,968,0.401114,968,0.0598188,968,0.376792,968,0.475045,968,0.471294,968,0.373284,
966,0.00207721,966,0.332463,966,0.411718,966,0.0719622,966,0.390541,966,0.486544,966,0.483738,966,0.388821,
964,-0.00996227,964,0.321508,964,0.397464,964,0.0611712,964,0.381056,964,0.473843,964,0.472133,964,0.380077,
962,-0.00275077,962,0.331032,962,0.403267,962,0.0712143,962,0.392575,962,0.481897,962,0.477613,962,0.388736,
960,-0.00306786,960,0.332126,960,0.400924,960,0.0703608,960,0.393289,960,0.48024,960,0.478723,960,0.392967,
958,-0.0100653,958,0.326757,958,0.392029,958,0.066735,958,0.390985,958,0.473855,958,0.470291,958,0.387477,
956,0.00185379,956,0.340977,956,0.402274,956,0.0788756,956,0.404813,956,0.485284,956,0.482522,956,0.403176,
954,-0.0114578,954,0.328835,954,0.386705,954,0.0676394,954,0.395011,954,0.471778,954,0.469315,954,0.392972,
952,0.000783887,952,0.343748,952,0.397407,952,0.0818774,952,0.410876,952,0.484434,952,0.480594,952,0.407726,
950,-0.00805236,950,0.33604,950,0.386266,950,0.0734728,950,0.404005,950,0.474668,950,0.473007,950,0.403158,
948,-0.00332246,948,0.343385,948,0.389301,948,0.0817101,948,0.413844,948,0.480287,948,0.475963,948,0.409735,
946,-0.0042879,946,0.343997,946,0.386164,946,0.0803722,946,0.414286,946,0.478246,946,0.476596,946,0.413666,
944,-0.00699975,944,0.343453,944,0.381486,944,0.0814422,944,0.416852,944,0.476365,944,0.472279,944,0.412831,
942,-0.000482919,942,0.352273,942,0.386051,942,0.0877162,942,0.425137,942,0.482137,942,0.480089,942,0.424184,
940,-0.00927612,940,0.345449,940,0.37504,940,0.0825684,940,0.42158,940,0.474021,940,0.470133,940,0.417815,
938,0.000317711,938,0.357409,938,0.38272,938,0.0923842,938,0.433322,938,0.48303,938,0.480698,938,0.431991,
936,-0.0105028,936,0.348511,936,0.369517,936,0.0847127,936,0.427364,936,0.47247,936,0.469092,936,0.424002,
934,0.000900937,934,0.362493,934,0.379067,934,0.096907,934,0.441409,934,0.483752,934,0.480958,934,0.439638,
932,-0.0103846,932,0.353223,932,0.36541,932,0.0887484,932,0.435103,932,0.47281,932,0.46928,932,0.431613,
930,0.000669928,930,0.36702,930,0.374626,930,0.100733,930,0.448971,930,0.48387,930,0.481044,930,0.447123,
928,-0.0102725,928,0.357958,928,0.361106,928,0.0928152,928,0.442823,928,0.473137,928,0.469705,928,0.439356,
926,0.00035771,926,0.371466,926,0.369886,926,0.104421,926,0.456505,926,0.483745,926,0.481066,926,0.454739,
924,-0.00900101,924,0.364277,924,0.358007,924,0.0984982,924,0.452402,924,0.474855,924,0.470911,924,0.448387,
922,-0.000876701,922,0.375145,922,0.364235,922,0.107338,922,0.463352,922,0.482774,922,0.480461,922,0.461751,
920,-0.00753388,920,0.37083,920,0.35522,920,0.104395,920,0.462219,920,0.476967,920,0.472692,920,0.45791,
918,-0.002642615,918,0.378239,918,0.357907,918,0.109825,918,0.469883,918,0.481426,918,0.479203,918,0.468261,
916,-0.00349243,916,0.380327,916,0.35472,916,0.112995,916,0.474915,916,0.481648,916,0.476978,916,0.470274,
914,-0.00537833,914,0.380675,914,0.350518,914,0.111786,914,0.475909,914,0.479333,914,0.47697,914,0.474064,
912,0.000410668,912,0.389804,912,0.354205,912,0.121303,912,0.487402,912,0.486247,912,0.481684,912,0.483073,
910,-0.00674266,910,0.38481,910,0.344446,910,0.115853,910,0.484081,910,0.478993,910,0.475749,910,0.481011,
908,0.00356952,908,0.398512,908,0.352754,908,0.128546,908,0.498955,908,0.489921,908,0.486217,908,0.495828,
906,-0.0061778,906,0.391112,906,0.340339,906,0.121944,906,0.494413,906,0.480667,906,0.476354,906,0.48995,
904,-0.000984517,904,0.399388,904,0.343392,904,0.128489,904,0.503251,904,0.485975,904,0.483071,904,0.500796,
902,-0.00180407,902,0.401745,902,0.340236,902,0.131672,902,0.50849,902,0.486324,902,0.481374,902,0.503582,
900,-0.00730979,900,0.39881,900,0.332181,900,0.127716,900,0.506841,900,0.480828,900,0.477532,900,0.503666,
898,0.000589642,898,0.410264,898,0.337937,898,0.138591,898,0.519876,898,0.489604,898,0.485358,898,0.515975,
896,-0.00712195,896,0.405277,896,0.327633,896,0.134108,896,0.517689,896,0.48262,896,0.477852,896,0.51274,
894,-0.00440625,894,0.411104,894,0.328003,894,0.138372,894,0.524247,894,0.485462,894,0.482157,894,0.521287,
892,-0.00158624,892,0.41738,892,0.328553,892,0.144934,892,0.533048,892,0.48952,892,0.484461,892,0.528041,
890,-0.00848564,890,0.413239,890,0.319071,890,0.140534,890,0.530868,890,0.482998,890,0.47873,890,0.526375,
888,-0.00282474,888,0.422358,888,0.322432,888,0.148303,888,0.54112,888,0.489225,888,0.485399,888,0.537566,
886,-0.00300606,886,0.42559,886,0.319915,886,0.151952,886,0.54692,886,0.490236,886,0.485019,886,0.541512,
884,-0.00812355,884,0.423334,884,0.31225,884,0.149167,884,0.546407,884,0.485524,884,0.481074,884,0.541763,
882,-0.00256115,882,0.432534,882,0.315705,882,0.157216,882,0.556915,882,0.491944,882,0.487717,882,0.552784,
880,-0.00288939,880,0.435657,880,0.31302,880,0.160542,880,0.562422,880,0.492736,880,0.487223,880,0.556785,
878,-0.00762937,878,0.433917,878,0.305764,878,0.158328,878,0.562542,878,0.488578,878,0.483627,878,0.55724,
876,-0.00346814,876,0.441557,876,0.307797,876,0.164857,876,0.571342,876,0.493435,876,0.488929,876,0.566801,
874,-0.00243066,874,0.446146,874,0.30662,874,0.16924,874,0.578111,874,0.495576,874,0.490079,874,0.57235,
872,-0.00656365,872,0.445155,872,0.300081,872,0.168024,872,0.579064,872,0.492185,872,0.486583,872,0.572992,
870,-0.00586762,870,0.449181,870,0.298637,870,0.170872,870,0.584333,870,0.493534,870,0.488546,870,0.57911,
868,-0.00263063,868,0.455996,868,0.299772,868,0.176995,868,0.592646,868,0.497633,868,0.492251,868,0.58696,
866,-0.00415526,866,0.457793,866,0.296023,866,0.178372,866,0.596278,866,0.496878,866,0.490862,866,0.589724,
864,-0.00669964,864,0.458363,864,0.291413,864,0.178258,864,0.598359,864,0.494994,864,0.489186,864,0.591965,
862,-0.00512545,862,0.463271,862,0.290948,862,0.18194,862,0.604355,862,0.496953,862,0.491401,862,0.598287,
860,-0.00325011,860,0.468531,860,0.29082,860,0.186257,860,0.610895,860,0.499426,860,0.493495,860,0.604465,
858,-0.00417228,858,0.470758,858,0.287867,858,0.187654,858,0.614459,858,0.498759,858,0.492577,858,0.60744,
856,-0.00591022,856,0.471966,856,0.284125,856,0.187825,856,0.616829,856,0.497259,856,0.491016,856,0.609758,
854,-0.00534054,854,0.475659,854,0.282929,854,0.190086,854,0.621167,854,0.497822,854,0.491849,854,0.614332,
852,-0.00418428,852,0.48,852,0.282297,852,0.192855,852,0.626314,852,0.498934,852,0.492815,852,0.619291,
850,-0.00397949,850,0.483222,850,0.280843,850,0.194692,850,0.63028,850,0.499048,850,0.492698,850,0.623071,
848,-0.00481892,848,0.485253,848,0.278268,848,0.195019,848,0.632947,848,0.49782,848,0.491372,848,0.625464,
846,-0.0054744,846,0.487358,846,0.275895,846,0.195447,846,0.635325,846,0.496632,846,0.490307,846,0.627937,
844,-0.0052849,844,0.490377,844,0.274559,844,0.19644,844,0.638645,844,0.496099,844,0.489754,844,0.63126,
842,-0.0047822,842,0.493566,842,0.273555,842,0.197596,842,0.642011,842,0.495708,842,0.489494,842,0.63452,
840,-0.0045509,840,0.496423,840,0.272488,840,0.198322,840,0.644953,840,0.494992,840,0.48876,840,0.637433,
838,-0.004624,838,0.498773,838,0.270978,838,0.198447,838,0.647261,838,0.493826,838,0.487569,838,0.639685,
836,-0.00480263,836,0.501094,836,0.269452,836,0.198469,836,0.649383,836,0.492329,836,0.486117,836,0.641746,
834,-0.00502955,834,0.503174,834,0.26799,834,0.198104,834,0.651179,834,0.490696,834,0.484527,834,0.643564,
832,-0.00512248,832,0.505308,832,0.266695,832,0.197899,832,0.653066,832,0.489193,832,0.483084,832,0.645432,
830,-0.00503344,830,0.507602,830,0.265643,830,0.197637,830,0.654858,830,0.487731,830,0.4817,830,0.647317,
828,-0.00506435,828,0.509671,828,0.264531,828,0.197273,828,0.656442,828,0.486155,828,0.480175,828,0.648957,
826,-0.00488839,826,0.511795,826,0.263716,826,0.196809,826,0.658024,826,0.484642,826,0.478695,826,0.650551,
824,-0.0049407,824,0.513763,824,0.262729,824,0.196261,824,0.659441,824,0.483061,824,0.477198,824,0.652007,
822,-0.00482654,822,0.515556,822,0.261818,822,0.195669,822,0.660769,822,0.48132,822,0.475577,822,0.653298,
820,-0.00493763,820,0.517307,820,0.260838,820,0.194922,820,0.661827,820,0.47961,820,0.473878,820,0.65448,
818,-0.00493855,818,0.518998,818,0.260044,818,0.194184,818,0.662995,818,0.477888,818,0.472297,818,0.655629,
816,-0.00494731,816,0.520716,816,0.259298,816,0.193569,816,0.664035,816,0.476343,816,0.470795,816,0.656755,
814,-0.00495749,814,0.522225,814,0.258391,814,0.192847,814,0.665046,814,0.474729,814,0.469355,814,0.657754,
812,-0.00489914,812,0.523929,812,0.257756,812,0.192207,812,0.666066,812,0.473321,812,0.467906,812,0.658865,
810,-0.00496481,810,0.52537,810,0.256946,810,0.191465,810,0.667012,810,0.471708,810,0.466373,810,0.659857,
808,-0.00486878,808,0.527002,808,0.256442,808,0.19088,808,0.668196,808,0.470402,808,0.465204,808,0.661114,
806,-0.00501589,806,0.528461,806,0.255603,806,0.19022,806,0.669146,806,0.468905,806,0.463809,806,0.661953,
804,-0.00492392,804,0.53021,804,0.25511,804,0.189694,804,0.670341,804,0.4678,804,0.46273,804,0.663289,
802,-0.00505187,802,0.531601,802,0.254364,802,0.189154,802,0.671394,802,0.466422,802,0.461495,802,0.664385,
800,-0.00495299,800,0.533054,800,0.253603,800,0.188659,800,0.672388,800,0.465112,800,0.460181,800,0.665428,
798,-0.00307912,798,0.183034,798,0.713836,798,0.153608,798,0.31968,798,0.917704,798,0.921617,798,0.32441,
796,-0.00321265,796,0.182853,796,0.71394,796,0.153205,796,0.319245,796,0.917953,796,0.921344,796,0.324214,
794,-0.0030657,794,0.182928,794,0.714222,794,0.1529,794,0.318825,794,0.918097,794,0.921431,794,0.323731,
792,-0.003128,792,0.182373,792,0.714355,792,0.152418,792,0.318214,792,0.917383,792,0.921654,792,0.323534,
790,-0.00322447,790,0.182228,790,0.715016,790,0.152043,790,0.317577,790,0.917593,790,0.921455,790,0.322839,
788,-0.0031995,788,0.182028,788,0.715642,788,0.151732,788,0.317325,788,0.917663,788,0.921785,788,0.322255,
786,-0.00306832,786,0.181931,786,0.716312,786,0.151629,786,0.316938,786,0.918369,786,0.922011,786,0.322122,
784,-0.00318624,784,0.181472,784,0.716704,784,0.151187,784,0.316232,784,0.918729,784,0.922252,784,0.321387,
782,-0.00315365,782,0.181231,782,0.717585,782,0.150801,782,0.315919,782,0.918998,782,0.922839,782,0.321061,
780,-0.00316681,780,0.180916,780,0.718283,780,0.150531,780,0.315393,780,0.919509,780,0.923593,780,0.320577,
778,-0.0033185,778,0.180519,778,0.719258,778,0.150247,778,0.314572,778,0.919932,778,0.923804,778,0.319864,
776,-0.0032035,776,0.180456,776,0.72014,776,0.149942,776,0.314269,776,0.920306,776,0.924359,776,0.319332,
774,-0.0031906,774,0.179997,774,0.72126,774,0.149408,774,0.313513,774,0.920998,774,0.925006,774,0.318876,
772,-0.00306709,772,0.179789,772,0.722303,772,0.149248,772,0.312948,772,0.92167,772,0.925808,772,0.318406,
770,-0.00316701,770,0.17942,770,0.723495,770,0.148716,770,0.312094,770,0.922033,770,0.926111,770,0.317526,
768,-0.00326203,768,0.178943,768,0.72457,768,0.148126,768,0.311482,768,0.922726,768,0.92646,768,0.316603,
766,-0.00328356,766,0.178505,766,0.725737,766,0.147448,766,0.310516,766,0.923103,766,0.927091,766,0.315696,
764,-0.00322144,764,0.178129,764,0.726972,764,0.146982,764,0.309405,764,0.923724,764,0.92748,764,0.314857,
762,-0.00315154,762,0.177657,762,0.728464,762,0.146133,762,0.308587,762,0.924302,762,0.928396,762,0.314002,
760,-0.00328968,760,0.177343,760,0.729999,760,0.145388,760,0.307556,760,0.924529,760,0.92902,760,0.313001,
758,-0.00336654,758,0.176732,758,0.731392,758,0.144466,758,0.306181,758,0.925248,758,0.929111,758,0.311634,
756,-0.00324256,756,0.176419,756,0.733207,756,0.143679,756,0.305223,756,0.92569,756,0.929921,756,0.310716,
754,-0.00322216,754,0.176019,754,0.735301,754,0.142871,754,0.304161,754,0.926236,754,0.930372,754,0.309616,
752,-0.00332492,752,0.175145,752,0.736663,752,0.141652,752,0.302669,752,0.926674,752,0.930701,752,0.308135,
750,-0.00311937,750,0.174892,750,0.738595,750,0.140703,750,0.301304,750,0.927092,750,0.931373,750,0.307089,
748,-0.00335236,748,0.17437,748,0.740709,748,0.139471,748,0.299714,748,0.927772,748,0.931934,748,0.305333,
746,-0.00314712,746,0.173844,746,0.742859,746,0.138425,746,0.298243,746,0.928364,746,0.932365,746,0.30392,
744,-0.00298061,744,0.173421,744,0.745307,744,0.137408,744,0.296973,744,0.929093,744,0.933397,744,0.302644,
742,-0.00301187,742,0.172539,742,0.747429,742,0.13584,742,0.295019,742,0.929609,742,0.933994,742,0.300827,
740,-0.00308647,740,0.171954,740,0.749703,740,0.134546,740,0.29319,740,0.930213,740,0.934469,740,0.299102,
738,-0.00307691,738,0.171162,738,0.752387,738,0.133221,738,0.291373,738,0.930947,738,0.935486,738,0.297442,
736,-0.00325063,736,0.170215,736,0.754904,736,0.131729,736,0.289274,736,0.931675,736,0.936,736,0.29525,
734,-0.00315658,734,0.169417,734,0.757748,734,0.13027,734,0.287325,734,0.932404,734,0.937172,734,0.293497,
732,-0.00327488,732,0.168534,732,0.760666,732,0.128757,732,0.285282,732,0.933489,732,0.937958,732,0.291496,
730,-0.00345925,730,0.167558,730,0.763668,730,0.127119,730,0.283058,730,0.934434,730,0.939162,730,0.289322,
728,-0.00327046,728,0.166885,728,0.767127,728,0.125881,728,0.281123,728,0.936184,728,0.940873,728,0.287623,
726,-0.00331306,726,0.165804,726,0.770481,726,0.124316,726,0.278995,726,0.937608,726,0.942278,726,0.285398,
724,-0.00332318,724,0.164868,724,0.774049,724,0.122731,724,0.276727,724,0.939024,724,0.943912,724,0.283506,
722,-0.00352576,722,0.163702,722,0.777885,722,0.121048,722,0.274434,722,0.940784,722,0.945896,722,0.28112,
720,-0.00333268,720,0.162825,720,0.782173,720,0.119769,720,0.27227,720,0.943106,720,0.947987,720,0.279185,
718,-0.00343219,718,0.16187,718,0.786301,718,0.118269,718,0.270093,718,0.945409,718,0.950287,718,0.276899,
716,-0.00345674,716,0.160697,716,0.790845,716,0.116788,716,0.267827,716,0.948041,716,0.95299,716,0.274769,
714,-0.0033427,714,0.159589,714,0.795655,714,0.115321,714,0.265435,714,0.950871,714,0.955853,714,0.272577,
712,-0.00342274,712,0.158362,712,0.80064,712,0.113842,712,0.263086,712,0.953885,712,0.958822,712,0.270305,
710,-0.00337727,710,0.15723,710,0.805851,710,0.112436,710,0.260769,710,0.957165,710,0.962348,710,0.268037,
708,-0.00348483,708,0.155926,708,0.811247,708,0.110936,708,0.258286,708,0.960798,708,0.965807,708,0.265667,
706,-0.00341873,706,0.154605,706,0.8173,706,0.109599,706,0.255929,706,0.964883,706,0.969888,706,0.263394,
704,-0.00345771,704,0.153404,704,0.823383,704,0.108191,704,0.253472,704,0.969134,704,0.974203,704,0.26101,
702,-0.00338591,702,0.151942,702,0.829635,702,0.106823,702,0.250926,702,0.973712,702,0.978768,702,0.258554,
700,-0.00352987,700,0.150458,700,0.836344,700,0.105354,700,0.248442,700,0.978533,700,0.983465,700,0.256215,
698,-0.00342315,698,0.149133,698,0.843504,698,0.104107,698,0.245919,698,0.983819,698,0.988756,698,0.253663,
696,-0.0035594,696,0.147551,696,0.850727,696,0.102619,696,0.243337,696,0.989278,696,0.994299,696,0.251186,
694,-0.00342119,694,0.146099,694,0.858438,694,0.101277,694,0.240749,694,0.995108,694,1.00007,694,0.248711,
692,-0.00346711,692,0.144595,692,0.866426,692,0.0999652,692,0.238085,692,1.00146,692,1.00625,692,0.246059,
690,-0.00344246,690,0.143019,690,0.874743,690,0.0985759,690,0.235436,690,1.00785,690,1.01265,690,0.243664,
688,-0.00339181,688,0.141516,688,0.883253,688,0.0974193,688,0.2329,688,1.01479,688,1.0196,688,0.241105,
686,-0.00352587,686,0.139927,686,0.891961,686,0.0959594,686,0.230192,686,1.02172,686,1.02655,686,0.238488,
684,-0.00343234,684,0.138332,684,0.901202,684,0.0946806,684,0.22751,684,1.02914,684,1.0337,684,0.236022,
682,-0.00353562,682,0.13679,682,0.910528,682,0.0932438,682,0.224906,682,1.03676,682,1.04126,682,0.233338,
680,-0.00352864,680,0.135238,680,0.919823,680,0.0919726,680,0.22224,680,1.04448,680,1.04907,680,0.230892,
678,-0.0034854,678,0.13376,678,0.929589,678,0.0906512,678,0.219753,678,1.05247,678,1.05684,678,0.228459,
676,-0.00348042,676,0.132258,676,0.93925,676,0.0893644,676,0.217185,676,1.06037,676,1.06475,676,0.225957,
674,-0.00345191,674,0.130912,674,0.948893,674,0.0881071,674,0.214769,674,1.06826,674,1.0726,674,0.22364,
672,-0.00355036,672,0.129507,672,0.9582,672,0.0867369,672,0.212218,672,1.07598,672,1.08024,672,0.221235,
670,-0.00350347,670,0.128335,670,0.967513,670,0.0856336,670,0.210009,670,1.08359,670,1.0878,670,0.219134,
668,-0.00355051,668,0.127161,668,0.97621,668,0.0843005,668,0.207809,668,1.09053,668,1.09489,668,0.216949,
666,-0.00343424,666,0.126173,666,0.98448,666,0.0831555,666,0.205756,666,1.09717,666,1.10136,666,0.215086,
664,-0.00345715,664,0.125336,664,0.99189,664,0.0819089,664,0.203791,664,1.10292,664,1.10716,664,0.213195,
662,-0.00343573,662,0.12457,662,0.998273,662,0.0807193,662,0.202031,662,1.10792,662,1.11218,662,0.211601,
660,-0.00344688,660,0.124109,660,1.00372,660,0.0796041,660,0.200508,660,1.11172,660,1.11599,660,0.210134,
658,-0.0034628,658,0.123771,658,1.00744,658,0.0784383,658,0.199097,658,1.11417,658,1.11846,658,0.208955,
656,-0.00344205,656,0.123726,656,1.00983,656,0.0773655,656,0.198022,656,1.11505,656,1.11952,656,0.20793,
654,-0.00347862,654,0.123766,654,1.01055,654,0.0762553,654,0.197037,654,1.11413,654,1.11864,654,0.207162,
652,-0.00340645,652,0.124248,652,1.00918,652,0.0752489,652,0.196507,652,1.11143,652,1.11616,652,0.206654,
650,-0.00339659,650,0.124874,650,1.0058,650,0.0742629,650,0.1961,650,1.10669,650,1.11164,650,0.206477,
648,-0.00339489,648,0.125811,648,1.0005,648,0.0733228,648,0.196136,648,1.1,648,1.10506,648,0.206579,
646,-0.00349048,646,0.126977,646,0.993021,646,0.0723203,646,0.196292,646,1.09122,646,1.0966,646,0.206915,
644,-0.0034177,644,0.128506,644,0.983655,644,0.0714292,644,0.196945,644,1.08057,644,1.0862,644,0.207621,
642,-0.00342587,642,0.130332,642,0.97271,642,0.0705107,642,0.197852,642,1.06825,642,1.07428,642,0.208632,
640,-0.0034232,640,0.132275,640,0.960481,640,0.0696505,640,0.198904,640,1.05483,640,1.06101,640,0.209911,
638,-0.00343902,638,0.134613,638,0.94726,638,0.0688296,638,0.200349,638,1.04026,638,1.04697,638,0.211353,
636,-0.0033165,636,0.137024,636,0.933513,636,0.0681659,636,0.201901,636,1.02525,636,1.03204,636,0.213081,
634,-0.0033576,634,0.13959,634,0.919771,634,0.0674214,634,0.203629,634,1.01033,634,1.01727,634,0.214876,
632,-0.00338,632,0.142058,632,0.906414,632,0.0666143,632,0.205143,632,0.995711,632,1.00303,632,0.216498,
630,-0.00336941,630,0.144412,630,0.893972,630,0.065825,630,0.206725,630,0.98208,630,0.989605,630,0.218172,
628,-0.00340029,628,0.146588,628,0.88306,628,0.0649524,628,0.208013,628,0.969852,628,0.977441,628,0.219522,
626,-0.00338981,626,0.148438,626,0.874037,626,0.0642965,626,0.209197,626,0.959782,626,0.967663,626,0.220692,
624,-0.00340661,624,0.149964,624,0.867172,624,0.0634245,624,0.209789,624,0.951684,624,0.959655,624,0.221385,
622,-0.00345294,622,0.150831,622,0.862822,622,0.0625974,622,0.209966,622,0.946297,622,0.954223,622,0.221581,
620,-0.00342284,620,0.15137,620,0.861292,620,0.0618034,620,0.209687,620,0.943683,620,0.951546,620,0.221302,
618,-0.00332539,618,0.151149,618,0.862566,618,0.0609698,618,0.208817,618,0.943765,618,0.951787,618,0.220381,
616,-0.00335411,616,0.150529,616,0.866639,616,0.0600749,616,0.20738,616,0.946652,616,0.954643,616,0.218909,
614,-0.00348221,614,0.149243,614,0.87296,614,0.059108,614,0.205358,614,0.951916,614,0.959803,614,0.216876,
612,-0.00339294,612,0.147859,612,0.881376,612,0.0584284,612,0.203265,612,0.959385,612,0.967318,612,0.214829,
610,-0.00343234,610,0.146155,610,0.890644,610,0.0575727,610,0.200895,610,0.967645,610,0.975408,610,0.212436,
608,-0.00339577,608,0.144594,608,0.899866,608,0.0567782,608,0.198768,608,0.975968,608,0.983767,608,0.210275,
606,-0.00346449,606,0.143349,606,0.907624,606,0.0560061,606,0.196823,606,0.982534,606,0.990364,606,0.208364,
604,-0.00340147,604,0.142622,604,0.91216,604,0.0552445,604,0.195558,604,0.986282,604,0.994153,604,0.207129,
602,-0.00342597,602,0.142798,602,0.912549,602,0.0546853,602,0.19503,602,0.985796,602,0.993606,602,0.206735,
600,-0.00345217,600,0.143832,600,0.907192,600,0.0540702,600,0.195477,600,0.979668,600,0.987774,600,0.207288,
598,-0.00338246,598,0.146006,598,0.896344,598,0.0535653,598,0.197078,598,0.968015,598,0.976236,598,0.208962,
596,-0.00331845,596,0.149308,596,0.880048,596,0.0531958,596,0.199844,596,0.950745,596,0.959444,596,0.211853,
594,-0.00338852,594,0.153689,594,0.859109,594,0.052724,594,0.20367,594,0.929071,594,0.937974,594,0.215673,
592,-0.00340697,592,0.159007,592,0.834745,592,0.0524643,592,0.208461,592,0.903959,592,0.913059,592,0.220556,
590,-0.00343938,590,0.165177,590,0.808636,590,0.0520261,590,0.214145,590,0.87714,590,0.886487,590,0.22629,
588,-0.00332056,588,0.171982,588,0.782125,588,0.0518053,588,0.220408,588,0.849789,588,0.859469,588,0.232601,
586,-0.0034177,586,0.179136,586,0.756055,586,0.0514489,586,0.22712,586,0.823021,586,0.833009,586,0.239354,
584,-0.00340116,584,0.186518,584,0.731357,584,0.0511064,584,0.233948,584,0.79751,584,0.807598,584,0.246207,
582,-0.00340214,582,0.193796,582,0.708253,582,0.0508228,582,0.240836,582,0.773807,582,0.784021,582,0.253091,
580,-0.00338683,580,0.20101,580,0.687174,580,0.0505678,580,0.247528,580,0.752067,580,0.76257,580,0.259819,
578,-0.00328814,578,0.207783,578,0.668078,578,0.0502646,578,0.253965,578,0.732276,578,0.742871,578,0.266314,
576,-0.00340938,576,0.214519,576,0.651131,576,0.0500895,576,0.260175,576,0.714853,576,0.725366,576,0.272586,
574,-0.00342659,574,0.220485,574,0.635803,574,0.0498092,574,0.265926,574,0.698836,574,0.709517,574,0.278383,
572,-0.00343845,572,0.22621,572,0.622217,572,0.0494242,572,0.271246,572,0.684722,572,0.695529,572,0.283728,
570,-0.00348956,570,0.231634,570,0.609883,570,0.0492421,570,0.276374,570,0.671876,570,0.682768,570,0.288938,
568,-0.00340743,568,0.237012,568,0.598699,568,0.0489679,568,0.281291,568,0.660275,568,0.671176,568,0.294169,
566,-0.00346973,566,0.239937,566,0.592506,566,0.0486413,566,0.284013,566,0.653435,566,0.664462,566,0.296924,
564,-0.00343784,564,0.240533,564,0.591715,564,0.0483446,564,0.284308,564,0.652309,564,0.663334,564,0.297245,
562,-0.0032829,562,0.241467,562,0.59029,562,0.0480687,562,0.284958,562,0.650329,562,0.661377,562,0.297933,
560,-0.00328855,560,0.242605,560,0.588264,560,0.0477864,560,0.285755,560,0.647884,560,0.658935,560,0.298801,
558,-0.00339592,558,0.243705,558,0.586192,558,0.047457,558,0.286509,558,0.645437,558,0.656644,558,0.29968,
556,-0.00329256,556,0.244728,556,0.584328,556,0.0472094,556,0.287508,556,0.643319,556,0.65447,556,0.300641,
554,-0.00334481,554,0.24577,554,0.582684,554,0.0469401,554,0.288292,554,0.641315,554,0.65243,554,0.301433,
552,-0.00330607,552,0.2466,552,0.581214,552,0.0467333,552,0.288952,552,0.639496,552,0.650696,552,0.302133,
550,-0.00328875,550,0.247596,550,0.580047,550,0.0465044,550,0.289566,550,0.638057,550,0.649315,550,0.302834,
548,-0.00335698,548,0.248135,548,0.578995,548,0.0462374,548,0.290035,548,0.636775,548,0.647916,548,0.303372,
546,-0.00332847,546,0.24861,546,0.578395,546,0.0461158,546,0.290362,546,0.635856,546,0.647136,546,0.303709,
544,-0.00338688,544,0.247171,544,0.582296,544,0.0458197,544,0.288685,544,0.639458,544,0.650727,544,0.301837,
542,-0.00342335,542,0.244387,542,0.588118,542,0.0454795,542,0.285776,542,0.64508,542,0.656323,542,0.299032,
540,-0.00340039,540,0.242795,540,0.592,540,0.0453353,540,0.283994,540,0.648776,540,0.659914,540,0.297358,
538,-0.00345664,538,0.241558,538,0.594847,538,0.0450997,538,0.282691,538,0.651416,538,0.662629,538,0.296105,
536,-0.00335441,536,0.240703,536,0.597344,536,0.0450461,536,0.281605,536,0.653803,536,0.664981,536,0.295195,
534,-0.003365,534,0.239839,534,0.599479,534,0.0447655,534,0.280765,534,0.655684,534,0.667036,534,0.294267,
532,-0.00339258,532,0.239223,532,0.601532,532,0.0446711,532,0.279797,532,0.657652,532,0.668903,532,0.293504,
530,-0.00347379,530,0.238414,530,0.603437,530,0.044493,530,0.279157,530,0.65936,530,0.670657,530,0.29279,
528,-0.00348427,528,0.237859,528,0.605252,528,0.044403,528,0.278362,528,0.661153,528,0.672416,528,0.292194,
526,-0.00342967,526,0.23736,526,0.60718,526,0.0443343,526,0.27783,526,0.662928,526,0.674199,526,0.291662,
524,-0.00342823,524,0.236814,524,0.608982,524,0.0443243,524,0.277194,524,0.664747,524,0.676026,524,0.291128,
522,-0.00341128,522,0.236168,522,0.610833,522,0.0442587,522,0.276622,522,0.666465,522,0.677754,522,0.290589,
520,-0.00350075,520,0.235506,520,0.612459,520,0.0440849,520,0.275806,520,0.668131,520,0.679454,520,0.289927,
518,-0.00340075,518,0.234995,518,0.614412,518,0.0441397,518,0.2753,518,0.66993,518,0.681269,518,0.289367,
516,-0.00338945,516,0.234317,516,0.616245,516,0.0440356,516,0.274689,516,0.671871,516,0.6832,516,0.288894,
514,-0.003382,514,0.233783,514,0.618219,514,0.0440993,514,0.274085,514,0.673852,514,0.685107,514,0.288309,
512,-0.00339135,512,0.233081,512,0.620102,512,0.0440125,512,0.273457,512,0.675684,512,0.687102,512,0.287797,
510,-0.00339875,510,0.232477,510,0.622139,510,0.0440395,510,0.272758,510,0.677734,510,0.68912,510,0.287194,
508,-0.00335359,508,0.231801,508,0.624202,508,0.0440628,508,0.272183,508,0.679889,508,0.691255,508,0.286742,
506,-0.0034308,506,0.231151,506,0.626196,506,0.0440159,506,0.271468,506,0.682,506,0.693349,506,0.286117,
504,-0.0033745,504,0.230465,504,0.628313,504,0.0441339,504,0.270905,504,0.684169,504,0.695555,504,0.285576,
502,-0.00338005,502,0.229769,502,0.630508,502,0.0441319,502,0.270186,502,0.686379,502,0.697874,502,0.285043,
500,-0.00333027,500,0.229251,500,0.632824,500,0.0442163,500,0.269715,500,0.688786,500,0.700213,500,0.284593,
498,-0.00333741,498,0.228405,498,0.635021,498,0.0442346,498,0.269022,498,0.691022,498,0.702591,498,0.284028,
496,-0.0033801,496,0.227792,496,0.637294,496,0.0443298,496,0.268427,496,0.693421,496,0.70499,496,0.283476,
494,-0.00336428,494,0.227076,494,0.639554,494,0.0442995,494,0.267843,494,0.695812,494,0.707372,494,0.283054,
492,-0.00335816,492,0.226456,492,0.641913,492,0.0445095,492,0.267236,492,0.698392,492,0.709997,492,0.28255,
490,-0.00337805,490,0.225663,490,0.644108,490,0.0444881,490,0.266614,490,0.700764,490,0.71228,490,0.281999,
488,-0.00338025,488,0.225141,488,0.646484,488,0.0446556,488,0.266014,488,0.703399,488,0.714814,488,0.281574,
486,-0.0033633,486,0.22438,486,0.648872,486,0.0446848,486,0.265514,486,0.705895,486,0.717439,486,0.281124,
484,-0.00336176,484,0.223707,484,0.651378,484,0.0448038,484,0.264849,484,0.708525,484,0.720088,484,0.280598,
482,-0.00337532,482,0.223028,482,0.653956,482,0.0449497,482,0.264283,482,0.711318,482,0.722817,482,0.280089,
480,-0.00336171,480,0.222276,480,0.656526,480,0.0449731,480,0.263623,480,0.714081,480,0.72557,480,0.279637,
478,-0.00333294,478,0.221455,478,0.659246,478,0.0451278,478,0.26295,478,0.716908,478,0.728447,478,0.278986,
476,-0.00334676,476,0.220664,476,0.662146,476,0.0451486,476,0.262179,476,0.719898,476,0.731485,476,0.278349,
474,-0.00330689,474,0.219887,474,0.665144,474,0.0453014,474,0.261482,474,0.723097,474,0.734769,474,0.277771,
472,-0.00337024,472,0.218963,472,0.668232,472,0.045254,472,0.260597,472,0.726366,472,0.73794,472,0.276961,
470,-0.00336027,470,0.218077,470,0.671596,470,0.0452953,470,0.259728,470,0.729756,470,0.741291,470,0.2762,
468,-0.00335894,468,0.217112,468,0.674817,468,0.0453108,468,0.258857,468,0.733183,468,0.744784,468,0.275434,
466,-0.00332405,466,0.216128,466,0.678357,466,0.0454272,466,0.25789,466,0.736791,466,0.748318,466,0.274574,
464,-0.00332112,464,0.215282,464,0.681809,464,0.0454845,464,0.25708,464,0.740346,464,0.751956,464,0.27388,
462,-0.00330823,462,0.214287,462,0.685249,462,0.0453981,462,0.256177,462,0.743762,462,0.755471,462,0.273019,
460,-0.00322704,460,0.213553,460,0.688634,460,0.045498,460,0.255397,460,0.747308,460,0.758907,460,0.272408,
458,-0.00323079,458,0.212734,458,0.69188,458,0.0454786,458,0.254552,458,0.750397,458,0.762103,458,0.271775,
456,-0.00334311,456,0.212091,456,0.694801,456,0.0454486,456,0.253811,456,0.753455,456,0.765055,456,0.271138,
454,-0.00331275,454,0.211405,454,0.697546,454,0.0453331,454,0.253204,454,0.756034,454,0.767771,454,0.270689,
452,-0.00332955,452,0.210954,452,0.699552,452,0.0451163,452,0.252532,452,0.758155,452,0.769807,452,0.270124,
450,-0.00332256,450,0.210563,450,0.70128,450,0.0450327,450,0.252148,450,0.759852,450,0.771611,450,0.269936,
448,-0.00332852,448,0.210463,448,0.702696,448,0.0449915,448,0.252015,448,0.76099,448,0.772682,448,0.269999,
446,-0.00326281,446,0.210721,446,0.703372,446,0.0450004,446,0.252174,446,0.761633,446,0.773473,446,0.270283,
444,-0.00335472,444,0.21092,444,0.703257,444,0.0447943,444,0.252257,444,0.761444,444,0.773224,444,0.270528,
442,-0.00320762,442,0.211587,442,0.702587,442,0.0447213,442,0.25271,442,0.760629,442,0.772578,442,0.271167,
440,-0.00332148,440,0.212175,440,0.701198,440,0.0444822,440,0.253176,440,0.759177,440,0.770988,440,0.271804,
438,-0.00315504,438,0.213206,438,0.699524,438,0.0444434,438,0.254126,438,0.757231,438,0.768987,438,0.272928,
436,-0.00334681,436,0.214162,436,0.696841,436,0.0441676,436,0.254957,436,0.754431,436,0.766274,436,0.273905,
434,-0.00329168,434,0.215694,434,0.694009,434,0.0442049,434,0.256306,434,0.751385,434,0.763307,434,0.275375,
432,-0.00328588,432,0.217034,432,0.690319,432,0.0438231,432,0.257482,432,0.747392,432,0.759315,432,0.276813,
430,-0.00329055,430,0.218853,430,0.686161,430,0.0437174,430,0.259171,430,0.743082,430,0.754863,430,0.278637,
428,-0.00310986,428,0.221197,428,0.68142,428,0.0437523,428,0.261207,428,0.737966,428,0.749986,428,0.280913,
426,-0.00306735,426,0.223388,426,0.675671,426,0.0435482,426,0.263376,426,0.732159,426,0.744066,426,0.283156,
424,-0.00319112,424,0.226092,424,0.669138,424,0.0433653,424,0.265852,424,0.72508,424,0.737214,424,0.285884,
422,-0.0031885,422,0.229223,422,0.661666,422,0.0431894,422,0.268678,422,0.717244,422,0.729442,422,0.288994,
420,-0.00316609,420,0.232843,420,0.653509,420,0.0431076,420,0.272259,420,0.708839,420,0.721026,420,0.292602,
418,-0.00323156,418,0.23664,418,0.6446,418,0.0430043,418,0.275887,418,0.699843,418,0.712067,418,0.296482,
416,-0.00324297,416,0.240763,416,0.635854,416,0.0429633,416,0.279783,416,0.690568,416,0.702696,416,0.300482,
414,-0.00318557,414,0.244879,414,0.626854,414,0.0427188,414,0.283729,414,0.681333,414,0.693536,414,0.304667,
412,-0.00308914,412,0.248986,412,0.618487,412,0.0426042,412,0.287685,412,0.672644,412,0.684752,412,0.308664,
410,-0.00319765,410,0.25289,410,0.610623,410,0.0423594,410,0.291311,410,0.664552,410,0.676714,410,0.312498,
408,-0.00322612,408,0.25664,408,0.603846,408,0.0422432,408,0.294859,408,0.657391,408,0.66952,408,0.316266,
406,-0.00317046,406,0.259928,406,0.59799,406,0.0421154,406,0.298102,406,0.651239,406,0.66345,406,0.319503,
404,-0.00313566,404,0.262956,404,0.593371,404,0.0420928,404,0.30105,404,0.646344,404,0.658418,404,0.322562,
402,-0.00313124,402,0.265574,402,0.589429,402,0.0417894,402,0.303346,402,0.642166,402,0.654412,402,0.324987,
400,-0.00312261,400,0.267561,400,0.58648,400,0.0417851,400,0.30517,400,0.638943,400,0.651145,400,0.327021,
398,-0.00302272,398,0.269159,398,0.584602,398,0.0416284,398,0.306797,398,0.636573,398,0.648816,398,0.328654,
396,-0.00311407,396,0.270293,396,0.583213,396,0.0413999,396,0.307645,396,0.63494,396,0.647307,396,0.329726,
394,-0.00307341,394,0.271226,394,0.582701,394,0.0413284,394,0.308493,394,0.634225,394,0.646349,394,0.330711,
392,-0.00312276,392,0.271832,392,0.582725,392,0.0410498,392,0.308933,392,0.634076,392,0.646209,392,0.331294,
390,-0.00304015,390,0.272282,390,0.583312,390,0.0409586,390,0.309191,390,0.634374,390,0.646525,390,0.331728,
388,-0.00300015,388,0.272451,388,0.584329,388,0.0407622,388,0.309264,388,0.635022,388,0.647283,388,0.331724,
386,-0.0030074,386,0.272326,386,0.585504,386,0.0406822,386,0.309042,386,0.635937,386,0.648147,386,0.331642,
384,-0.0029385,384,0.272281,384,0.586825,384,0.0404321,384,0.308811,384,0.637233,384,0.649378,384,0.331475,
382,-0.00315802,382,0.271922,382,0.588235,382,0.0401761,382,0.308331,382,0.638107,382,0.650278,382,0.331133,
380,-0.00296046,380,0.27182,380,0.58995,380,0.0401313,380,0.308042,380,0.639512,380,0.651624,380,0.330941,
378,-0.00278955,378,0.271464,378,0.591428,378,0.0400577,378,0.307601,378,0.640758,378,0.653075,378,0.330553,
376,-0.002729,376,0.271198,376,0.592861,376,0.0398921,376,0.307153,376,0.641963,376,0.653997,376,0.330221,
374,-0.00272895,374,0.270928,374,0.594039,374,0.0397585,374,0.30658,374,0.642996,374,0.655253,374,0.329831,
372,-0.00265023,372,0.270679,372,0.595359,372,0.0396263,372,0.306372,372,0.643808,372,0.655918,372,0.329543,
370,-0.00270019,370,0.270632,370,0.59609,370,0.039307,370,0.306079,370,0.644278,370,0.656442,370,0.32946,
368,-0.00266279,368,0.270962,368,0.596578,368,0.0391887,368,0.306247,368,0.644506,368,0.656722,368,0.329614,
366,-0.00259445,366,0.271647,366,0.596338,366,0.0389332,366,0.306726,366,0.643785,366,0.656027,366,0.330114,
364,-0.00256743,364,0.272633,364,0.595106,364,0.0388714,364,0.307612,364,0.642299,364,0.654286,364,0.331004,
362,-0.00248507,362,0.274686,362,0.592585,362,0.0388081,362,0.309302,362,0.639425,362,0.651369,362,0.333063,
360,-0.0025228,360,0.277084,360,0.588222,360,0.0384073,360,0.311503,360,0.634633,360,0.646897,360,0.335319,
358,-0.00257885,358,0.280907,358,0.582446,358,0.0381631,358,0.314988,358,0.628499,358,0.640566,358,0.338933,
356,-0.00226506,356,0.285723,356,0.574728,356,0.0381457,356,0.319606,356,0.620301,356,0.632358,356,0.343597,
354,-0.00237485,354,0.2916,354,0.565245,354,0.038004,354,0.325454,354,0.610389,354,0.622565,354,0.349412,
352,-0.00232058,352,0.298259,352,0.554552,352,0.0377266,352,0.331862,352,0.599222,352,0.61125,352,0.356037,
350,-0.00228957,350,0.305712,350,0.543524,350,0.0378092,350,0.339109,350,0.587955,350,0.600162,350,0.363175,
348,-0.00158454,348,0.274198,348,0.567147,348,0.0350419,348,0.306921,348,0.60902,348,0.628765,348,0.334013,
346,-0.00218945,346,0.280745,346,0.556993,346,0.0346343,346,0.312828,346,0.598292,346,0.617746,346,0.340421,
344,-0.00224039,344,0.286608,344,0.548302,344,0.0342905,344,0.318152,344,0.589303,344,0.608673,344,0.346016,
342,-0.00180577,342,0.291852,342,0.541846,342,0.0342526,342,0.323379,342,0.58237,342,0.601771,342,0.351315,
340,-0.002059,340,0.296024,340,0.537325,340,0.0343256,340,0.327227,340,0.577816,340,0.597364,340,0.355095,
338,-0.00196629,338,0.298906,338,0.535008,338,0.033961,338,0.330394,338,0.574923,338,0.59403,338,0.358107,
336,-0.00160073,336,0.302251,336,0.533842,336,0.0342759,336,0.333275,336,0.573529,336,0.592383,336,0.36134,
334,-0.00161858,334,0.304933,334,0.532358,334,0.0339576,334,0.335836,334,0.572247,334,0.591193,334,0.363899,
332,-0.00161368,332,0.308386,332,0.532405,332,0.0339802,332,0.33905,332,0.571319,332,0.590729,332,0.367161,
330,-0.00153022,330,0.311959,330,0.532721,330,0.0339777,330,0.342802,330,0.571697,330,0.590567,330,0.370935,
328,-0.00131896,328,0.316455,328,0.53331,328,0.0340701,328,0.347216,328,0.571346,328,0.590996,328,0.375383,
326,-0.000980178,326,0.32106,326,0.53438,326,0.0344258,326,0.351751,326,0.572289,326,0.591987,326,0.380156,
324,-0.000915553,324,0.325319,324,0.536304,324,0.0345219,324,0.355861,324,0.574309,324,0.593992,324,0.384629,
322,-0.000787565,322,0.330874,322,0.536491,322,0.0346347,322,0.360979,322,0.574446,322,0.594009,322,0.390058,
320,-0.000372753,320,0.337108,320,0.535837,320,0.0350835,320,0.367621,320,0.573523,320,0.593487,320,0.396725,
318,-0.000208539,318,0.343655,318,0.533226,318,0.0353269,318,0.37422,318,0.570603,318,0.591075,318,0.403778,
316,4.8513e-05,316,0.351434,316,0.529113,316,0.0355959,316,0.381754,316,0.566285,316,0.586672,316,0.412021,
314,0.000236092,314,0.360258,314,0.523118,314,0.036209,314,0.3908,314,0.560479,314,0.581079,314,0.421036,
312,0.000893596,312,0.370921,312,0.515332,312,0.0369299,312,0.401545,312,0.552968,312,0.573577,312,0.432111,
310,0.000878811,310,0.382185,310,0.505133,310,0.0371899,310,0.413327,310,0.542572,310,0.563998,310,0.443807,
308,0.00124527,308,0.395408,308,0.494098,308,0.0375284,308,0.426114,308,0.531241,308,0.554024,308,0.457093,
306,0.00206301,306,0.409687,306,0.484208,306,0.0386895,306,0.44076,306,0.52093,306,0.544074,306,0.471842,
304,0.00235847,304,0.421528,304,0.474142,304,0.0389504,304,0.453117,304,0.511384,304,0.535032,304,0.484708,
302,0.00307245,302,0.432315,302,0.467778,302,0.0400416,302,0.463566,302,0.504263,302,0.529067,302,0.496043,
300,0.00375215,300,0.440942,300,0.463332,300,0.0413127,300,0.47204,300,0.501174,300,0.527129,300,0.505391,