File: DichroicRatioFromUVData-master 2/DataParse2/14-17.csv
PDMS,,PDMS-90,,PDMS-0,,K1S-spin,,K1S-spin-90,,K1S-spin-0,,K1S-ff-3mms,,K1S-ff-3mms-90,,K1S-ff-3mms-0,,K1S-lf-3mms,,K1S-lf-3mms-90,,K1S-lf-3mms-0,,K1S-lf-3mms-2,,K1S-lf-3mms-2-90,,K1S-lf-3mms-2-0,,
Wavelength (nm),Abs,Wavelength (nm),Abs,Wavelength (nm),Abs,Wavelength (nm),Abs,Wavelength (nm),Abs,Wavelength (nm),Abs,Wavelength (nm),Abs,Wavelength (nm),Abs,Wavelength (nm),Abs,Wavelength (nm),Abs,Wavelength (nm),Abs,Wavelength (nm),Abs,Wavelength (nm),Abs,Wavelength (nm),Abs,Wavelength (nm),Abs,
1100,0.525376,1100,1.22055,1100,0.761137,1100,0.470515,1100,1.13455,1100,0.781081,1100,0.816571,1100,1.47939,1100,1.00801,1100,0.548179,1100,1.17177,1100,0.793619,1100,0.681318,1100,1.32067,1100,0.899315,
1097,0.52622,1097,1.2168,1097,0.764563,1097,0.470776,1097,1.1301,1097,0.783865,1097,0.817635,1097,1.47504,1097,1.01195,1097,0.548603,1097,1.16738,1097,0.796751,1097,0.68183,1097,1.31675,1097,0.902562,
1094,0.526778,1094,1.21133,1094,0.767986,1094,0.471558,1094,1.12544,1094,0.787794,1094,0.81787,1094,1.4704,1094,1.01513,1094,0.549359,1094,1.16302,1094,0.80054,1094,0.682908,1094,1.31274,1094,0.906497,
1091,0.526876,1091,1.2049,1091,0.771253,1091,0.471129,1091,1.11937,1091,0.790679,1091,0.817371,1091,1.46372,1091,1.01862,1091,0.549389,1091,1.15683,1091,0.803824,1091,0.682944,1091,1.30687,1091,0.909855,
1088,0.526333,1088,1.19877,1088,0.77442,1088,0.470664,1088,1.11292,1088,0.793489,1088,0.817312,1088,1.45756,1088,1.02169,1088,0.549287,1088,1.15071,1088,0.807084,1088,0.682431,1088,1.30078,1088,0.912852,
1085,0.526773,1085,1.19647,1085,0.776186,1085,0.470992,1085,1.11077,1085,0.79557,1085,0.817484,1085,1.45541,1085,1.02346,1085,0.54964,1085,1.14895,1085,0.808934,1085,0.68303,1085,1.29912,1085,0.91509,
1082,0.526263,1082,1.19331,1082,0.776985,1082,0.470859,1082,1.10817,1082,0.796787,1082,0.817496,1082,1.45233,1082,1.02414,1082,0.549661,1082,1.14622,1082,0.810223,1082,0.682879,1082,1.29654,1082,0.91596,
1079,0.526383,1079,1.19105,1079,0.778693,1079,0.470626,1079,1.10548,1079,0.798218,1079,0.81789,1079,1.45004,1079,1.02584,1079,0.549575,1079,1.144,1079,0.811892,1079,0.68271,1079,1.29413,1079,0.917771,
1076,0.526218,1076,1.18824,1076,0.779739,1076,0.470755,1076,1.1032,1076,0.799998,1076,0.817473,1076,1.4473,1076,1.02669,1076,0.550039,1076,1.14164,1076,0.813525,1076,0.683151,1076,1.29201,1076,0.9193,
1073,0.525832,1073,1.18576,1073,0.780938,1073,0.470291,1073,1.10013,1073,0.800979,1073,0.817677,1073,1.44479,1073,1.02831,1073,0.549628,1073,1.13904,1073,0.814715,1073,0.682677,1073,1.28921,1073,0.920408,
1070,0.525871,1070,1.18303,1070,0.782127,1070,0.470467,1070,1.09795,1070,0.802878,1070,0.817105,1070,1.44239,1070,1.02946,1070,0.550062,1070,1.13711,1070,0.816677,1070,0.683301,1070,1.28722,1070,0.922362,
1067,0.525832,1067,1.18085,1067,0.784058,1067,0.470149,1067,1.09539,1067,0.804077,1067,0.816891,1067,1.43997,1067,1.0313,1067,0.550022,1067,1.13498,1067,0.818278,1067,0.683083,1067,1.28521,1067,0.923888,
1064,0.525447,1064,1.17828,1064,0.785095,1064,0.470153,1064,1.09303,1064,0.805492,1064,0.816696,1064,1.43739,1064,1.03217,1064,0.550223,1064,1.13247,1064,0.819712,1064,0.683279,1064,1.28306,1064,0.925247,
1061,0.525969,1061,1.1761,1061,0.787039,1061,0.470421,1061,1.09119,1061,0.80766,1061,0.817085,1061,1.43545,1061,1.03386,1061,0.550736,1061,1.13118,1061,0.821992,1061,0.684031,1061,1.28134,1061,0.927588,
1058,0.525618,1058,1.17362,1058,0.788142,1058,0.47027,1058,1.08829,1058,0.808933,1058,0.817101,1058,1.43285,1058,1.03497,1058,0.550667,1058,1.12856,1058,0.823523,1058,0.683721,1058,1.27883,1058,0.928949,
1055,0.525427,1055,1.1707,1055,0.789453,1055,0.47024,1055,1.08594,1055,0.810441,1055,0.817785,1055,1.43042,1055,1.03665,1055,0.551054,1055,1.12628,1055,0.82505,1055,0.683695,1055,1.27643,1055,0.930259,
1052,0.525778,1052,1.16892,1052,0.791196,1052,0.47052,1052,1.08402,1052,0.812422,1052,0.817731,1052,1.42822,1052,1.03842,1052,0.551495,1052,1.12451,1052,0.827229,1052,0.684578,1052,1.27514,1052,0.932422,
1049,0.526225,1049,1.16674,1049,0.793071,1049,0.470756,1049,1.08213,1049,0.814407,1049,0.818163,1049,1.42663,1049,1.04028,1049,0.552023,1049,1.12318,1049,0.829346,1049,0.685112,1049,1.27331,1049,0.934778,
1046,0.526118,1046,1.16465,1046,0.794556,1046,0.470738,1046,1.0798,1046,0.81597,1046,0.818245,1046,1.42422,1046,1.04188,1046,0.55233,1046,1.12113,1046,0.83113,1046,0.685324,1046,1.27137,1046,0.936423,
1043,0.526129,1043,1.16227,1043,0.796231,1043,0.470797,1043,1.07762,1043,0.817583,1043,0.818657,1043,1.42252,1043,1.04359,1043,0.552688,1043,1.11928,1043,0.833094,1043,0.685688,1043,1.26957,1043,0.938323,
1040,0.526089,1040,1.16006,1040,0.797762,1040,0.470998,1040,1.07539,1040,0.819452,1040,0.818655,1040,1.4203,1040,1.04513,1040,0.553359,1040,1.11753,1040,0.835199,1040,0.686249,1040,1.26785,1040,0.940337,
1037,0.526309,1037,1.15794,1037,0.799488,1037,0.471117,1037,1.07331,1037,0.821347,1037,0.819199,1037,1.4185,1037,1.04683,1037,0.553817,1037,1.11581,1037,0.837276,1037,0.686638,1037,1.26593,1037,0.942354,
1034,0.526686,1034,1.1561,1034,0.801306,1034,0.471619,1034,1.07158,1034,0.823457,1034,0.819574,1034,1.41651,1034,1.04908,1034,0.554703,1034,1.11456,1034,0.839723,1034,0.687443,1034,1.2648,1034,0.94474,
1031,0.52721,1031,1.15408,1031,0.803323,1031,0.472318,1031,1.07002,1031,0.826027,1031,0.820622,1031,1.41523,1031,1.05134,1031,0.555779,1031,1.11335,1031,0.84244,1031,0.688302,1031,1.26336,1031,0.947277,
1028,0.528232,1028,1.15256,1028,0.805614,1028,0.473054,1028,1.06849,1028,0.828557,1028,0.821312,1028,1.41358,1028,1.05387,1028,0.556931,1028,1.11237,1028,0.84527,1028,0.689621,1028,1.26246,1028,0.950258,
1025,0.528528,1025,1.15055,1025,0.807897,1025,0.473676,1025,1.06695,1025,0.830895,1025,0.822458,1025,1.41223,1025,1.05622,1025,0.557932,1025,1.11113,1025,0.847923,1025,0.690584,1025,1.26116,1025,0.952935,
1022,0.529308,1022,1.14888,1022,0.810144,1022,0.474271,1022,1.06536,1022,0.833463,1022,0.82272,1022,1.41054,1022,1.05874,1022,0.559037,1022,1.11035,1022,0.850801,1022,0.692053,1022,1.26013,1022,0.955749,
1019,0.529571,1019,1.14686,1019,0.8123,1019,0.474808,1019,1.06336,1019,0.835778,1019,0.82354,1019,1.40927,1019,1.06071,1019,0.560246,1019,1.10909,1019,0.853498,1019,0.693049,1019,1.25897,1019,0.95827,
1016,0.52907,1016,1.14448,1016,0.813615,1016,0.474582,1016,1.06082,1016,0.8373,1016,0.82343,1016,1.40681,1016,1.06213,1016,0.560419,1016,1.10709,1016,0.855435,1016,0.693174,1016,1.25711,1016,0.9602,
1013,0.5286,1013,1.14162,1013,0.814903,1013,0.474141,1013,1.05817,1013,0.838847,1013,0.82356,1013,1.40456,1013,1.06347,1013,0.560598,1013,1.10501,1013,0.857425,1013,0.693227,1013,1.25479,1013,0.961989,
1010,0.528746,1010,1.13904,1010,0.816572,1010,0.474135,1010,1.056,1010,0.840846,1010,0.823523,1010,1.40188,1010,1.06517,1010,0.561099,1010,1.10349,1010,0.859652,1010,0.693725,1010,1.25347,1010,0.96432,
1007,0.528252,1007,1.13605,1007,0.817726,1007,0.473837,1007,1.05325,1007,0.842326,1007,0.82378,1007,1.39964,1007,1.06692,1007,0.561658,1007,1.10138,1007,0.861687,1007,0.693825,1007,1.25093,1007,0.966024,
1004,0.528501,1004,1.13377,1004,0.820002,1004,0.473943,1004,1.05113,1004,0.844736,1004,0.824099,1004,1.39747,1004,1.06946,1004,0.562367,1004,1.10018,1004,0.8646,1004,0.694756,1004,1.24967,1004,0.969047,
1001,0.528287,1001,1.13116,1001,0.821533,1001,0.474003,1001,1.04858,1001,0.846626,1001,0.824279,1001,1.39571,1001,1.07113,1001,0.563297,1001,1.09841,1001,0.867222,1001,0.695507,1001,1.24791,1001,0.971281,
998,0.528322,998,1.12876,998,0.823658,998,0.473956,998,1.04638,998,0.848939,998,0.824624,998,1.39349,998,1.07325,998,0.563901,998,1.09725,998,0.869967,998,0.696253,998,1.24662,998,0.97419,
995,0.527748,995,1.12613,995,0.825304,995,0.473976,995,1.04352,995,0.850879,995,0.825186,995,1.39156,995,1.075,995,0.5647946,995,1.0954,995,0.872563,995,0.697065,995,1.24494,995,0.976471,
992,0.528361,992,1.12396,992,0.827725,992,0.474304,992,1.04178,992,0.853612,992,0.825725,992,1.38966,992,1.07748,992,0.565847,992,1.09474,992,0.875892,992,0.698295,992,1.24413,992,0.979902,
989,0.527952,989,1.12125,989,0.829497,989,0.474257,989,1.0391,989,0.855811,989,0.826414,989,1.38774,989,1.07962,989,0.566958,989,1.09311,989,0.87887,989,0.699057,989,1.24248,989,0.982539,
986,0.528279,986,1.118487,986,0.831574,986,0.474476,986,1.03692,986,0.858301,986,0.827071,986,1.3858,986,1.08244,986,0.568196,986,1.09173,986,0.881996,986,0.700156,986,1.24116,986,0.985572,
983,0.52854,983,1.11588,983,0.833666,983,0.474745,983,1.03482,983,0.861066,983,0.827681,983,1.38365,983,1.0849,983,0.569495,983,1.09073,983,0.885502,983,0.701436,983,1.24009,983,0.988904,
980,0.52874,980,1.11316,980,0.836053,980,0.474659,980,1.03234,980,0.86346,980,0.828324,980,1.38178,980,1.08788,980,0.570703,980,1.08961,980,0.888844,980,0.702483,980,1.2386,980,0.992091,
977,0.5285,977,1.11056,977,0.838343,977,0.474958,977,1.02964,977,0.866259,977,0.829055,977,1.37999,977,1.09049,977,0.572186,977,1.08842,977,0.892451,977,0.703929,977,1.23738,977,0.995546,
974,0.528585,974,1.1081,974,0.841065,974,0.475365,974,1.02734,974,0.86935,974,0.830277,974,1.37867,974,1.09354,974,0.573788,974,1.08755,974,0.896354,974,0.705541,974,1.23628,974,0.99934,
971,0.528515,971,1.10542,971,0.843385,971,0.47548,971,1.02468,971,0.872095,971,0.83089,971,1.37679,971,1.09615,971,0.575323,971,1.08646,971,0.900237,971,0.707183,971,1.23579,971,1.00304,
968,0.528653,968,1.10253,968,0.846061,968,0.475816,968,1.02241,968,0.875171,968,0.832196,968,1.37503,968,1.09908,968,0.576977,968,1.08571,968,0.904233,968,0.708698,968,1.2347,968,1.00693,
965,0.528971,965,1.1,965,0.848531,965,0.476236,965,1.01999,965,0.878425,965,0.833112,965,1.3731,965,1.10239,965,0.578809,965,1.08472,965,0.90851,965,0.710461,965,1.23378,965,1.011,
962,0.529256,962,1.09667,962,0.851071,962,0.476455,962,1.01749,962,0.881644,962,0.834282,962,1.37112,962,1.10591,962,0.580594,962,1.0837,962,0.912704,962,0.711914,962,1.23258,962,1.01488,
959,0.529694,959,1.09393,959,0.853958,959,0.476913,959,1.01513,959,0.885162,959,0.835367,959,1.36925,959,1.10944,959,0.582748,959,1.08298,959,0.917297,959,0.713974,959,1.23194,959,1.01925,
956,0.530239,956,1.09098,956,0.857167,956,0.477377,956,1.01278,956,0.888679,956,0.83718,956,1.36793,956,1.11352,956,0.584919,956,1.08245,956,0.922056,956,0.715912,956,1.2311,956,1.02393,
953,0.530324,953,1.0882,953,0.8602,953,0.477804,953,1.01011,953,0.892254,953,0.838194,953,1.36585,953,1.11694,953,0.586957,953,1.08173,953,0.926879,953,0.718196,953,1.23053,953,1.02852,
950,0.529821,950,1.08429,950,0.862721,950,0.477866,950,1.00677,950,0.895578,950,0.839348,950,1.36358,950,1.12001,950,0.588735,950,1.08052,950,0.931346,950,0.719649,950,1.22864,950,1.03249,
947,0.530567,947,1.08224,947,0.866593,947,0.478569,947,1.00455,947,0.899702,947,0.841558,947,1.36277,947,1.12465,947,0.591241,947,1.08046,947,0.936868,947,0.722565,947,1.22928,947,1.03802,
944,0.529953,944,1.07786,944,0.869144,944,0.478733,944,1.00133,944,0.903381,944,0.842264,944,1.36006,944,1.12755,944,0.593054,944,1.07911,944,0.941736,944,0.724035,944,1.22725,944,1.04239,
941,0.530852,941,1.07519,941,0.8727,941,0.479329,941,0.998927,941,0.907585,941,0.844197,941,1.35862,941,1.13254,941,0.59575,941,1.07879,941,0.947333,941,0.726786,941,1.22745,941,1.04791,
938,0.531192,938,1.07144,938,0.876032,938,0.479668,938,0.996231,938,0.91172,938,0.845993,938,1.35665,938,1.13663,938,0.598215,938,1.07812,938,0.952848,938,0.728922,938,1.22614,938,1.05309,
935,0.532003,935,1.06819,935,0.879789,935,0.480279,935,0.993567,935,0.916188,935,0.847847,935,1.35505,935,1.1416,935,0.60098,935,1.07764,935,0.958767,935,0.731632,935,1.22611,935,1.05873,
932,0.53259,932,1.06499,932,0.883904,932,0.481015,932,0.990967,932,0.920731,932,0.850367,932,1.35399,932,1.1467,932,0.603988,932,1.07744,932,0.964819,932,0.734408,932,1.22575,932,1.06457,
929,0.532642,929,1.06124,929,0.887444,929,0.481472,929,0.988066,929,0.925262,929,0.851926,929,1.35158,929,1.15114,929,0.606448,929,1.07704,929,0.970741,929,0.737015,929,1.22515,929,1.0702,
926,0.532995,926,1.05783,926,0.891511,926,0.482242,926,0.98537,926,0.930091,926,0.854744,926,1.35059,926,1.15615,926,0.609459,926,1.07661,926,0.977076,926,0.739944,926,1.2248,926,1.07619,
923,0.533822,923,1.05494,923,0.895935,923,0.483247,923,0.982991,923,0.935394,923,0.857424,923,1.34945,923,1.16148,923,0.612566,923,1.07702,923,0.983827,923,0.743266,923,1.22514,923,1.08282,
920,0.534947,920,1.05192,920,0.900684,920,0.484646,920,0.981089,920,0.940975,920,0.860805,920,1.34864,920,1.1672,920,0.61632,920,1.07752,920,0.991006,920,0.746845,920,1.22557,920,1.08968,
917,0.536442,917,1.04905,917,0.905347,917,0.485984,917,0.979239,917,0.946769,917,0.863652,917,1.34754,917,1.17329,917,0.619926,917,1.07809,917,0.998328,917,0.750498,917,1.22598,917,1.09675,
914,0.537847,914,1.04544,914,0.910159,914,0.487458,914,0.977128,914,0.952681,914,0.867158,914,1.34642,914,1.17949,914,0.623915,914,1.07848,914,1.00582,914,0.754262,914,1.2264,914,1.10383,
911,0.541587,911,1.0444,911,0.917466,911,0.491048,911,0.977462,911,0.961044,911,0.872635,911,1.34796,911,1.1885,911,0.630088,911,1.08159,911,1.01585,911,0.760449,911,1.2295,911,1.11359,
908,0.544209,908,1.04252,908,0.924008,908,0.494109,908,0.977002,908,0.968859,908,0.87777,908,1.3488,908,1.1965,908,0.635724,908,1.08383,908,1.02535,908,0.766153,908,1.23158,908,1.12264,
905,0.542926,905,1.03684,905,0.926837,905,0.492787,905,0.972244,905,0.972516,905,0.878562,905,1.34557,905,1.20049,905,0.636906,905,1.08209,905,1.03056,905,0.767361,905,1.22951,905,1.12765,
902,0.541754,902,1.0316,902,0.930173,902,0.491999,902,0.967743,902,0.976765,902,0.880191,902,1.3428,902,1.2046,902,0.638858,902,1.0807,902,1.03656,902,0.769392,902,1.22824,902,1.13321,
899,0.541416,899,1.02645,899,0.934065,899,0.491708,899,0.963824,899,0.981607,899,0.882155,899,1.34016,899,1.20959,899,0.641177,899,1.07997,899,1.04308,899,0.771809,899,1.22727,899,1.13945,
896,0.541582,896,1.02192,896,0.938351,896,0.491836,896,0.960575,896,0.987011,896,0.884556,896,1.33814,896,1.21521,896,0.644144,896,1.07956,896,1.05019,896,0.774722,896,1.22705,896,1.14605,
893,0.542111,893,1.01731,893,0.942875,893,0.492229,893,0.957684,893,0.992839,893,0.887162,893,1.33612,893,1.22164,893,0.647284,893,1.07961,893,1.05763,893,0.777863,893,1.22666,893,1.15319,
890,0.542762,890,1.01287,890,0.94774,890,0.492852,890,0.954775,890,0.998916,890,0.889971,890,1.33473,890,1.22796,890,0.650898,890,1.07989,890,1.06553,890,0.781499,890,1.22708,890,1.16057,
887,0.543772,887,1.00839,887,0.952959,887,0.493671,887,0.952288,887,1.00531,887,0.893241,887,1.33357,887,1.23487,887,0.654486,887,1.08038,887,1.07348,887,0.785225,887,1.22747,887,1.1682,
884,0.544916,884,1.00468,884,0.958536,884,0.494747,884,0.949881,884,1.01211,884,0.896906,884,1.3326,884,1.242,884,0.658455,884,1.08117,884,1.0819,884,0.789453,884,1.22855,884,1.1762,
881,0.546061,881,1.00089,881,0.964301,881,0.495983,881,0.947909,881,1.01908,881,0.901164,881,1.33217,881,1.24945,881,0.662592,881,1.08236,881,1.09041,881,0.79367,881,1.22959,881,1.1844,
878,0.546999,878,0.997086,878,0.969969,878,0.497168,878,0.945578,878,1.02608,878,0.90494,878,1.33135,878,1.25645,878,0.666425,878,1.08336,878,1.09885,878,0.798051,878,1.23088,878,1.19261,
875,0.548003,875,0.99301,875,0.975491,875,0.498099,875,0.943307,875,1.03284,875,0.908786,875,1.33065,875,1.26359,875,0.670053,875,1.08409,875,1.10703,875,0.802023,875,1.23143,875,1.20042,
872,0.549047,872,0.989274,872,0.980895,872,0.499125,872,0.941213,872,1.03985,872,0.912235,872,1.32945,872,1.27045,872,0.673792,872,1.08497,872,1.11532,872,0.806278,872,1.23263,872,1.20827,
869,0.550552,869,0.985213,869,0.986624,869,0.500242,869,0.939452,869,1.04687,869,0.91599,869,1.32859,869,1.27766,869,0.67752,869,1.08593,869,1.12336,869,0.810169,869,1.23336,869,1.21622,
866,0.551921,866,0.981534,866,0.992162,866,0.501469,866,0.937629,866,1.05392,866,0.919113,866,1.32743,866,1.28489,866,0.681124,866,1.08682,866,1.13148,866,0.8144,866,1.23458,866,1.22399,
863,0.553508,863,0.977779,863,0.998027,863,0.502799,863,0.935987,863,1.06102,863,0.923048,863,1.3269,863,1.2923,863,0.684728,863,1.08772,863,1.13943,863,0.818329,863,1.23562,863,1.2316,
860,0.554841,860,0.974466,860,1.00364,860,0.504143,860,0.934537,860,1.068,860,0.926498,860,1.32576,860,1.29907,860,0.688074,860,1.0885,860,1.14707,860,0.822573,860,1.2365,860,1.23907,
857,0.556243,857,0.971142,857,1.00949,857,0.505583,857,0.933043,857,1.07492,857,0.93038,857,1.32499,857,1.30592,857,0.69103,857,1.08921,857,1.15441,857,0.826189,857,1.23694,857,1.2461,
854,0.557559,854,0.968496,854,1.01495,854,0.506949,854,0.931718,854,1.08165,854,0.933623,854,1.3238,854,1.31237,854,0.693681,854,1.08966,854,1.16133,854,0.829844,854,1.23773,854,1.25311,
851,0.558803,851,0.965423,851,1.02026,851,0.508218,851,0.930393,851,1.08802,851,0.936999,851,1.3227,851,1.31828,851,0.695959,851,1.08964,851,1.16773,851,0.832766,851,1.23744,851,1.25939,
848,0.560289,848,0.962662,848,1.02543,848,0.509444,848,0.929019,848,1.09422,848,0.93895,848,1.32066,848,1.32426,848,0.697883,848,1.08929,848,1.17369,848,0.835584,848,1.23733,848,1.26526,
845,0.561354,845,0.959636,845,1.03025,845,0.510531,845,0.927737,845,1.09997,845,0.941032,845,1.31902,845,1.3296,845,0.69938,845,1.08858,845,1.17916,845,0.837614,845,1.23643,845,1.27055,
842,0.562649,842,0.957054,842,1.03479,842,0.511601,842,0.926611,842,1.10551,842,0.942257,842,1.31677,842,1.33467,842,0.700561,842,1.0877,842,1.18428,842,0.83956,842,1.23564,842,1.27556,
839,0.563535,839,0.954592,839,1.03926,839,0.512783,839,0.925382,839,1.11075,839,0.943885,839,1.31469,839,1.33906,839,0.701367,839,1.08657,839,1.18883,839,0.840839,839,1.23398,839,1.28024,
836,0.564773,836,0.952452,836,1.04367,836,0.513701,836,0.92407,836,1.11553,836,0.944739,836,1.31244,836,1.34323,836,0.701683,836,1.08511,836,1.19286,836,0.841889,836,1.23233,836,1.2842,
833,0.56532,833,0.9505,833,1.04761,833,0.51468,833,0.922956,833,1.11994,833,0.94596,833,1.31042,833,1.34688,833,0.701858,833,1.08337,833,1.19631,833,0.842548,833,1.23055,833,1.28781,
830,0.566191,830,0.948901,830,1.0515,830,0.515592,830,0.921979,830,1.1242,830,0.946531,830,1.30793,830,1.35036,830,0.701613,830,1.08172,830,1.1995,830,0.842911,830,1.22856,830,1.29111,
827,0.566834,827,0.94722,827,1.05496,827,0.516377,827,0.920903,827,1.12795,827,0.947142,827,1.30569,827,1.35337,827,0.701261,827,1.07963,827,1.20235,827,0.842843,827,1.22624,827,1.29386,
824,0.567961,824,0.94586,824,1.05839,824,0.517111,824,0.919919,824,1.13143,824,0.947167,824,1.30334,824,1.35623,824,0.700769,824,1.07788,824,1.20473,824,0.842944,824,1.22427,824,1.29656,
821,0.568416,821,0.944111,821,1.06138,821,0.5177598,821,0.918993,821,1.1347,821,0.947055,821,1.30108,821,1.35869,821,0.700334,821,1.07569,821,1.20711,821,0.842593,821,1.222,821,1.29882,
818,0.569433,818,0.942907,818,1.0644,818,0.51843,818,0.918261,818,1.13777,818,0.946828,818,1.29877,818,1.36118,818,0.699693,818,1.07398,818,1.2091,818,0.842412,818,1.21982,818,1.30102,
815,0.569951,815,0.941715,815,1.06721,815,0.519191,815,0.917516,815,1.14072,815,0.946834,815,1.29683,815,1.36354,815,0.699349,815,1.07206,815,1.21121,815,0.842107,815,1.21772,815,1.30311,
812,0.57068,812,0.94082,812,1.07016,812,0.519871,812,0.916939,812,1.14347,812,0.946853,812,1.29484,812,1.36552,812,0.698642,812,1.07045,812,1.2131,812,0.841819,812,1.21577,812,1.30525,
809,0.571276,809,0.939927,809,1.07282,809,0.520742,809,0.91625,809,1.14627,809,0.947155,809,1.29316,809,1.36762,809,0.698255,809,1.06887,809,1.21513,809,0.841614,809,1.21387,809,1.30711,
806,0.572188,806,0.93919,806,1.07568,806,0.521805,806,0.916007,806,1.14926,806,0.947598,806,1.29136,806,1.36992,806,0.697911,806,1.06765,806,1.21722,806,0.841678,806,1.21219,806,1.30941,
803,0.573047,803,0.93853,803,1.07841,803,0.522889,803,0.915828,803,1.15225,803,0.94803,803,1.28979,803,1.37209,803,0.697791,803,1.06665,803,1.21939,803,0.841816,803,1.21087,803,1.31161,
800,0.574529,800,0.937607,800,1.0813,800,0.52433,800,0.915768,800,1.15525,800,0.948572,800,1.28817,800,1.37443,800,0.697985,800,1.06577,800,1.22173,800,0.842417,800,1.20954,800,1.31418,
797,0.664921,797,1.50366,797,0.82369,797,0.79421,797,1.62819,797,0.986689,797,0.97605,797,1.83191,797,1.10661,797,0.83379,797,1.69764,797,0.994068,797,0.918949,797,1.80475,797,1.06898,
794,0.664793,794,1.50377,794,0.823108,794,0.793977,794,1.62847,794,0.986052,794,0.975247,794,1.83182,794,1.10525,794,0.832913,794,1.69791,794,0.992886,794,0.917862,794,1.80376,794,1.06834,
791,0.664619,791,1.5044,791,0.822894,791,0.793752,791,1.62893,791,0.985532,791,0.974744,791,1.83142,791,1.10454,791,0.832627,791,1.69748,791,0.992201,791,0.9177,791,1.80342,791,1.06723,
788,0.664201,788,1.50547,788,0.822353,788,0.793702,788,1.62917,788,0.984882,788,0.974289,788,1.83183,788,1.10361,788,0.831954,788,1.69765,788,0.991505,788,0.917077,788,1.80413,788,1.06629,
785,0.664346,785,1.5066,785,0.821869,785,0.793643,785,1.63039,785,0.984324,785,0.973429,785,1.83207,785,1.10248,785,0.831206,785,1.69835,785,0.99042,785,0.916373,785,1.80425,785,1.06556,
782,0.663964,782,1.50741,782,0.821177,782,0.793267,782,1.63102,782,0.983826,782,0.972843,782,1.833,782,1.10159,782,0.83061,782,1.69844,782,0.989383,782,0.915721,782,1.80479,782,1.06433,
779,0.664027,779,1.50849,779,0.820364,779,0.793196,779,1.63274,779,0.983129,779,0.972214,779,1.83288,779,1.1006,779,0.830078,779,1.69969,779,0.988477,779,0.915176,779,1.80513,779,1.06331,
776,0.663827,776,1.50964,776,0.819937,776,0.793072,776,1.63392,776,0.982616,776,0.971652,776,1.83436,776,1.09944,776,0.829486,776,1.70043,776,0.987565,776,0.914372,776,1.80606,776,1.06219,
773,0.663798,773,1.51122,773,0.819016,773,0.792958,773,1.63502,773,0.981974,773,0.970639,773,1.83511,773,1.09825,773,0.828863,773,1.70117,773,0.986158,773,0.91362,773,1.80673,773,1.06092,
770,0.663596,770,1.513,770,0.818424,770,0.792831,770,1.63677,770,0.981247,770,0.97001,770,1.83611,770,1.09717,770,0.827972,770,1.70203,770,0.985118,770,0.9129,770,1.80746,770,1.05958,
767,0.663454,767,1.51492,767,0.81777,767,0.792361,767,1.63874,767,0.98008,767,0.969034,767,1.83688,767,1.09575,767,0.827149,767,1.7028,767,0.983495,767,0.912114,767,1.80843,767,1.05825,
764,0.663194,764,1.51711,764,0.816817,764,0.792022,764,1.63998,764,0.978969,764,0.968051,764,1.83785,764,1.09411,764,0.825834,764,1.70402,764,0.981821,764,0.911002,764,1.80949,764,1.05664,
761,0.663291,761,1.51979,761,0.816171,761,0.791856,761,1.64249,761,0.977809,761,0.967165,761,1.83924,761,1.09241,761,0.824672,761,1.70522,761,0.980069,761,0.909829,761,1.81047,761,1.05501,
758,0.66265,758,1.52172,758,0.814803,758,0.790958,758,1.6439,758,0.976518,758,0.965629,758,1.84,758,1.09034,758,0.822928,758,1.70621,758,0.977797,758,0.907956,758,1.8107,758,1.05268,
755,0.662524,755,1.52434,755,0.813888,755,0.790269,755,1.64624,755,0.974908,755,0.964068,755,1.84094,755,1.08819,755,0.821467,755,1.70692,755,0.975619,755,0.906659,755,1.81127,755,1.05057,
752,0.662447,752,1.52715,752,0.812897,752,0.789592,752,1.64898,752,0.973481,752,0.962612,752,1.84248,752,1.08615,752,0.819789,752,1.70831,752,0.973402,752,0.90478,752,1.81215,752,1.04827,
749,0.662325,749,1.53036,749,0.811884,749,0.788851,749,1.65137,749,0.971688,749,0.961153,749,1.84381,749,1.08408,749,0.817992,749,1.70931,749,0.970862,749,0.90295,749,1.81337,749,1.04592,
746,0.662432,746,1.53431,746,0.811101,746,0.788515,746,1.65454,746,0.970164,746,0.959899,746,1.84579,746,1.08197,746,0.81655,746,1.7111,746,0.968319,746,0.901748,746,1.81465,746,1.04366,
743,0.662253,743,1.5378,743,0.809989,743,0.787597,743,1.65723,743,0.967932,743,0.958146,743,1.84774,743,1.07959,743,0.814304,743,1.71257,743,0.965648,743,0.899646,743,1.81568,743,1.04088,
740,0.66174,740,1.5421,740,0.808533,740,0.786539,740,1.66033,740,0.966085,740,0.956231,740,1.8493,740,1.0768,740,0.812082,740,1.71394,740,0.962487,740,0.897525,740,1.81691,740,1.03774,
737,0.661307,737,1.54573,737,0.806928,737,0.78532,737,1.66365,737,0.96324,737,0.954347,737,1.85134,737,1.07363,737,0.809494,737,1.71574,737,0.959024,737,0.895083,737,1.81787,737,1.03466,
734,0.661099,734,1.55027,734,0.805169,734,0.784115,734,1.66728,734,0.960647,734,0.952107,734,1.8536,734,1.07065,734,0.807088,734,1.71776,734,0.955562,734,0.892873,734,1.81981,734,1.03113,
731,0.660831,731,1.55523,731,0.803417,731,0.783075,731,1.6716,731,0.957993,731,0.950232,731,1.85652,731,1.06742,731,0.804711,731,1.71987,731,0.951934,731,0.89025,731,1.82169,731,1.02743,
728,0.660486,728,1.56049,728,0.801713,728,0.781638,728,1.67619,728,0.955097,728,0.948007,728,1.85939,728,1.06414,728,0.802102,728,1.72305,728,0.948316,728,0.887924,728,1.82414,728,1.02413,
725,0.660185,725,1.56635,725,0.800046,725,0.780326,725,1.68087,725,0.952283,725,0.945919,725,1.86317,725,1.06092,725,0.7999,725,1.72625,725,0.9447577,725,0.885441,725,1.82729,725,1.02044,
722,0.659795,722,1.57273,722,0.798026,722,0.779188,722,1.68618,722,0.94926,722,0.943729,722,1.86744,722,1.05735,722,0.797248,722,1.72992,722,0.940707,722,0.883095,722,1.8304,722,1.01675,
719,0.659528,719,1.58006,719,0.796364,719,0.778082,719,1.69257,719,0.946354,719,0.942004,719,1.87251,719,1.05426,719,0.79502,719,1.73465,719,0.936969,719,0.880701,719,1.8348,719,1.0132,
716,0.659185,716,1.5878,716,0.794305,716,0.776806,716,1.69909,716,0.943238,716,0.939898,716,1.87797,716,1.05054,716,0.792527,716,1.73971,716,0.933222,716,0.878444,716,1.83938,716,1.00937,
713,0.659021,713,1.59592,713,0.792334,713,0.775748,713,1.70637,713,0.940301,713,0.938031,713,1.88418,713,1.04716,713,0.790244,713,1.74541,713,0.92921,713,0.876158,713,1.84477,713,1.0056,
710,0.658675,710,1.60508,710,0.790009,710,0.774404,710,1.71452,710,0.936842,710,0.935875,710,1.89095,710,1.04328,710,0.78772,710,1.75192,710,0.925004,710,0.873803,710,1.85091,710,1.00153,
707,0.658519,707,1.61437,707,0.787589,707,0.773165,707,1.72318,707,0.933494,707,0.933965,707,1.89847,707,1.03957,707,0.785514,707,1.75903,707,0.920942,707,0.871338,707,1.85782,707,0.997511,
704,0.6583,704,1.62507,704,0.785211,704,0.772009,704,1.73311,704,0.930039,704,0.931865,704,1.90682,704,1.0358,704,0.783152,704,1.76712,704,0.916819,704,0.869094,704,1.86539,704,0.993381,
701,0.657949,701,1.63675,701,0.782804,701,0.770813,701,1.74326,701,0.926452,701,0.929951,701,1.91642,701,1.03193,701,0.780922,701,1.77622,701,0.912416,701,0.866861,701,1.87434,701,0.989164,
698,0.657663,698,1.6489,698,0.780427,698,0.769662,698,1.75437,698,0.922762,698,0.927931,698,1.92635,698,1.02788,698,0.778581,698,1.78585,698,0.908256,698,0.864618,698,1.88378,698,0.985078,
695,0.657374,695,1.6621,695,0.777878,695,0.768513,695,1.76679,695,0.919143,695,0.926151,695,1.93758,695,1.02401,695,0.776371,695,1.79656,695,0.903804,695,0.86241,695,1.89386,695,0.98077,
692,0.657038,692,1.67602,692,0.775118,692,0.767313,692,1.77954,692,0.915305,692,0.924228,692,1.94967,692,1.01982,692,0.774012,692,1.80791,692,0.899359,692,0.860217,692,1.90539,692,0.976276,
689,0.656847,689,1.69082,689,0.772572,689,0.766127,689,1.79347,689,0.911635,689,0.92237,689,1.96248,689,1.01558,689,0.771863,689,1.82064,689,0.894854,689,0.857964,689,1.91743,689,0.97188,
686,0.65675,686,1.70643,686,0.769907,686,0.764861,686,1.80788,686,0.907755,686,0.920268,686,1.97602,686,1.01148,686,0.76962,686,1.83399,686,0.890506,686,0.855762,686,1.93049,686,0.967782,
683,0.656676,683,1.72289,683,0.767274,683,0.763774,683,1.82342,683,0.90401,683,0.918532,683,1.99069,683,1.00748,683,0.767579,683,1.84773,683,0.886043,683,0.853741,683,1.94413,683,0.963395,
680,0.656639,680,1.73986,680,0.764787,680,0.762517,680,1.83919,680,0.900101,680,0.916692,680,2.00521,680,1.00349,680,0.765444,680,1.86213,680,0.881792,680,0.851682,680,1.95826,680,0.959133,
677,0.656594,677,1.75716,677,0.762504,677,0.761371,677,1.85564,677,0.896553,677,0.915065,677,2.02066,677,0.999603,677,0.763489,677,1.87703,677,0.877558,677,0.849711,677,1.97276,677,0.954994,
674,0.65673,674,1.77436,674,0.760488,674,0.760378,674,1.8716,674,0.892973,674,0.913501,674,2.03601,674,0.995979,674,0.761524,674,1.89196,674,0.873576,674,0.847798,674,1.98746,674,0.950921,
671,0.656699,671,1.79115,671,0.758532,671,0.759451,671,1.88703,671,0.88976,671,0.912057,671,2.05072,671,0.992476,671,0.759617,671,1.90604,671,0.869695,671,0.846034,671,2.00157,671,0.947147,
668,0.657033,668,1.80626,668,0.756896,668,0.758413,668,1.90134,668,0.886687,668,0.910708,668,2.06404,668,0.989516,668,0.757745,668,1.91885,668,0.866377,668,0.844353,668,2.0142,668,0.943871,
665,0.657496,665,1.82002,665,0.755648,665,0.757551,665,1.91355,665,0.884234,665,0.909463,665,2.07542,665,0.986791,665,0.756265,665,1.93013,665,0.863177,665,0.842924,665,2.02517,665,0.940909,
662,0.658126,662,1.83082,662,0.755104,662,0.756781,662,1.92352,662,0.882054,662,0.908441,662,2.0846,662,0.984855,662,0.754821,662,1.93859,662,0.860638,662,0.841597,662,2.03353,662,0.938579,
659,0.658865,659,1.83815,659,0.755075,659,0.756095,659,1.9298,659,0.880346,659,0.907538,659,2.08984,659,0.983154,659,0.753664,659,1.94372,659,0.858679,659,0.840557,659,2.03854,659,0.936591,
656,0.659842,656,1.84099,656,0.75568,656,0.755568,656,1.93184,656,0.879284,656,0.906975,656,2.09071,656,0.982466,656,0.752567,656,1.94457,656,0.857403,656,0.839694,656,2.0391,656,0.935512,
653,0.660769,653,1.83897,653,0.756841,653,0.755047,653,1.92855,653,0.87897,653,0.906435,653,2.08677,653,0.982186,653,0.751688,653,1.94024,653,0.856768,653,0.838902,653,2.03451,653,0.934957,
650,0.661843,650,1.83135,650,0.758963,650,0.754713,650,1.92023,650,0.879273,650,0.906226,650,2.07707,650,0.982799,650,0.750973,650,1.93062,650,0.856844,650,0.838279,650,2.02495,650,0.935315,
647,0.662887,647,1.81822,647,0.761522,647,0.754327,647,1.90618,647,0.880229,647,0.905856,647,2.06196,647,0.984001,647,0.750147,647,1.91564,647,0.857617,647,0.837769,647,2.0097,647,0.936251,
644,0.663885,644,1.8005,644,0.764812,644,0.753969,644,1.88735,644,0.882028,644,0.905497,644,2.04199,644,0.985877,644,0.749287,644,1.89564,644,0.858926,644,0.837063,644,1.98967,644,0.937759,
641,0.664598,641,1.77848,641,0.768567,641,0.75341,641,1.86474,641,0.88441,641,0.904789,641,2.01802,641,0.988181,641,0.748438,641,1.87164,641,0.860879,641,0.836244,641,1.9656,641,0.939845,
638,0.665118,638,1.75422,638,0.772701,638,0.752763,638,1.83962,638,0.887067,638,0.903969,638,1.99173,638,0.990875,638,0.747339,638,1.84566,638,0.863383,638,0.835251,638,1.93939,638,0.94225,
635,0.66552,635,1.7294,635,0.776781,635,0.75205,635,1.81399,635,0.890048,635,0.902805,635,1.96509,635,0.993644,635,0.746217,635,1.81913,635,0.865903,635,0.834191,635,1.91249,635,0.944805,
632,0.665282,632,1.70536,632,0.780521,632,0.75097,632,1.78923,632,0.892728,632,0.901201,632,1.93944,632,0.995902,632,0.744649,632,1.79346,632,0.868229,632,0.832577,632,1.88674,632,0.94706,
629,0.664913,629,1.68488,629,0.783738,629,0.749785,629,1.76791,629,0.895111,629,0.899297,629,1.91671,629,0.997645,629,0.742833,629,1.77102,629,0.870018,629,0.830808,629,1.86387,629,0.948791,
626,0.664061,626,1.66873,626,0.785895,626,0.748395,626,1.75113,626,0.896478,626,0.897256,626,1.89897,626,0.998382,626,0.740751,626,1.75324,626,0.870786,626,0.828561,626,1.84562,626,0.949535,
623,0.663267,623,1.65867,623,0.786803,623,0.747001,623,1.74005,623,0.897006,623,0.894729,623,1.88709,623,0.997886,623,0.73857,623,1.74128,623,0.870617,623,0.826215,623,1.83364,623,0.949128,
620,0.661855,620,1.65538,620,0.786159,620,0.745306,620,1.73608,620,0.895959,620,0.892104,620,1.88199,620,0.995887,620,0.736172,620,1.7362,620,0.868746,620,0.823352,620,1.82817,620,0.946995,
617,0.660709,617,1.65962,617,0.784193,617,0.743666,617,1.73933,617,0.893538,617,0.889117,617,1.88427,617,0.992309,617,0.733565,617,1.73854,617,0.865542,617,0.820782,617,1.83018,617,0.943557,
614,0.659647,614,1.67003,614,0.781047,614,0.742159,614,1.74873,614,0.88997,614,0.886547,614,1.89308,614,0.987836,614,0.73136,614,1.74727,614,0.861505,614,0.818164,614,1.83872,614,0.939133,
611,0.659172,611,1.68479,611,0.777723,611,0.740975,611,1.76272,611,0.886028,611,0.884301,611,1.90629,611,0.983093,611,0.729376,611,1.76031,611,0.856848,611,0.816226,611,1.85167,611,0.934479,
608,0.659485,608,1.70031,608,0.775353,608,0.740318,608,1.77714,608,0.882384,608,0.883237,608,1.92018,608,0.9791,608,0.728317,608,1.77405,608,0.852963,608,0.815059,608,1.86514,608,0.930535,
605,0.661071,605,1.71098,605,0.774826,605,0.740384,605,1.78673,605,0.880236,605,0.883364,605,1.9289,605,0.977319,605,0.728189,605,1.7832,605,0.85081,605,0.81513,605,1.87419,605,0.928591,
602,0.663749,602,1.71111,602,0.777013,602,0.741249,602,1.7862,602,0.880288,602,0.884845,602,1.92779,602,0.978282,602,0.729153,602,1.78196,602,0.851094,602,0.816222,602,1.87283,602,0.929173,
599,0.666906,599,1.69725,599,0.78183,599,0.742441,599,1.77137,599,0.882865,599,0.886712,599,1.91203,599,0.98188,599,0.730353,599,1.76637,599,0.853896,599,0.817895,599,1.85734,599,0.932323,
596,0.66976,596,1.66919,596,0.789095,596,0.743584,596,1.7427,596,0.88816,596,0.888524,596,1.88247,596,0.988028,596,0.731808,596,1.73732,596,0.859229,596,0.819428,596,1.82785,596,0.938016,
593,0.671631,593,1.63054,593,0.798037,593,0.743974,593,1.70357,593,0.895342,593,0.889132,593,1.84206,593,0.995687,593,0.73221,593,1.69736,593,0.866516,593,0.819933,593,1.78776,593,0.945419,
590,0.672178,590,1.58681,590,0.807822,590,0.743681,590,1.65905,590,0.903988,590,0.888417,590,1.79642,590,1.00407,590,0.731846,590,1.65217,590,0.874905,590,0.819556,590,1.74235,590,0.95373,
587,0.672089,587,1.54264,587,0.818254,587,0.742776,587,1.61427,587,0.913616,587,0.887037,587,1.7508,587,1.01318,587,0.7308,587,1.60714,587,0.884425,587,0.818382,587,1.69684,587,0.963033,
584,0.671312,584,1.50189,584,0.829,584,0.741698,584,1.57286,584,0.923809,584,0.885195,584,1.70827,584,1.02236,584,0.729476,584,1.56508,584,0.894228,584,0.816777,584,1.65444,584,0.972489,
581,0.670484,581,1.46551,581,0.839321,581,0.740344,581,1.53578,581,0.933451,581,0.882953,581,1.67021,581,1.0314,581,0.727834,581,1.52758,581,0.903649,581,0.814963,581,1.61638,581,0.981644,
578,0.669768,578,1.43429,578,0.849071,578,0.739097,578,1.50406,578,0.942838,578,0.880923,578,1.63745,578,1.03982,578,0.726401,578,1.49522,578,0.912583,578,0.813135,578,1.58392,578,0.99019,
575,0.669294,575,1.408,575,0.85837,575,0.737923,575,1.47719,575,0.951484,575,0.87905,575,1.60971,575,1.04765,575,0.724992,575,1.46797,575,0.921015,575,0.811362,575,1.55612,575,0.998258,
572,0.668736,572,1.3861,572,0.8669312,572,0.737039,572,1.45454,572,0.959362,572,0.877185,572,1.58626,572,1.055,572,0.723835,572,1.44496,572,0.928582,572,0.809835,572,1.5329,572,1.00554,
569,0.667865,569,1.36717,569,0.87435,569,0.735615,569,1.43473,569,0.966154,569,0.875154,569,1.56591,569,1.06096,569,0.722289,569,1.42499,569,0.93516,569,0.80821,569,1.51252,569,1.01194,
566,0.667252,566,1.35536,566,0.879444,566,0.734452,566,1.42224,566,0.970726,566,0.873045,566,1.55238,566,1.06457,566,0.720817,566,1.4119,566,0.939544,566,0.806432,566,1.49912,566,1.01574,
563,0.667013,563,1.3539,563,0.879809,563,0.733489,563,1.42026,563,0.97056,563,0.871467,563,1.5495,563,1.06372,563,0.719664,563,1.40965,563,0.938952,563,0.804899,563,1.49643,563,1.01499,
560,0.667512,560,1.35155,560,0.881797,560,0.733224,560,1.41705,560,0.971625,560,0.870487,560,1.54576,560,1.06439,560,0.719135,560,1.40611,560,0.940091,560,0.804115,560,1.49258,560,1.01584,
557,0.6676,557,1.34859,557,0.883417,557,0.732586,557,1.41349,557,0.972591,557,0.86931,557,1.54158,557,1.06495,557,0.718508,557,1.40224,557,0.940862,557,0.803108,557,1.48842,557,1.01619,
554,0.667771,554,1.34623,554,0.884965,554,0.73191,554,1.41028,554,0.973409,554,0.868026,554,1.5379,554,1.06511,554,0.717629,554,1.39879,554,0.941548,554,0.801868,554,1.48472,554,1.01659,
551,0.667974,551,1.34458,551,0.886393,551,0.73152,551,1.4077,551,0.973885,551,0.866988,551,1.53477,551,1.06551,551,0.717186,551,1.39623,551,0.942157,551,0.801045,551,1.48172,551,1.01684,
548,0.668181,548,1.34334,548,0.887739,548,0.73101,548,1.40582,548,0.974218,548,0.865976,548,1.53224,548,1.06549,548,0.716556,548,1.39409,548,0.942571,548,0.800234,548,1.47929,548,1.01701,
545,0.666034,545,1.34379,545,0.885469,545,0.729662,545,1.40562,545,0.973004,545,0.86239,545,1.53112,545,1.06161,545,0.71452,545,1.39385,545,0.940731,545,0.797303,545,1.47855,545,1.01403,
542,0.665379,542,1.35233,542,0.880646,542,0.727715,542,1.41357,542,0.966883,542,0.860337,542,1.53868,542,1.05567,542,0.712683,542,1.40175,542,0.934898,542,0.795296,542,1.4859,542,1.00801,
539,0.666841,539,1.35854,539,0.879474,539,0.728152,539,1.41893,539,0.964752,539,0.860572,539,1.54371,539,1.05355,539,0.713179,539,1.40715,539,0.932935,539,0.795507,539,1.49096,539,1.00589,
536,0.667543,536,1.36287,536,0.878731,536,0.727899,536,1.42263,536,0.962879,536,0.860177,536,1.54702,536,1.05181,536,0.713123,536,1.41076,536,0.931271,536,0.794989,536,1.49441,536,1.00393,
533,0.668064,533,1.36649,533,0.877741,533,0.727571,533,1.42563,533,0.961178,533,0.859332,533,1.54941,533,1.04994,533,0.712942,533,1.41368,533,0.929687,533,0.794384,533,1.4967,533,1.0018,
530,0.66851,530,1.36981,530,0.877126,530,0.727334,530,1.42814,530,0.959735,530,0.858747,530,1.55189,530,1.04842,530,0.712625,530,1.41631,530,0.928229,530,0.793842,530,1.49901,530,1.00018,
527,0.66874,527,1.37307,527,0.876373,527,0.726975,527,1.43058,527,0.958085,527,0.858158,527,1.55404,527,1.04672,527,0.712488,527,1.41904,527,0.927023,527,0.793248,527,1.50136,527,0.998514,
524,0.668925,524,1.37613,524,0.875621,524,0.726551,524,1.43301,524,0.956626,524,0.857557,524,1.5562,524,1.04511,524,0.712084,524,1.42145,524,0.925718,524,0.792658,524,1.50356,524,0.996961,
521,0.669235,521,1.3792,521,0.874935,521,0.726378,521,1.43544,521,0.955236,521,0.857031,521,1.5586,521,1.04363,521,0.711903,521,1.42404,521,0.92438,521,0.792327,521,1.5058,521,0.995494,
518,0.669507,518,1.38222,518,0.87418,518,0.726148,518,1.43821,518,0.953977,518,0.856832,518,1.5612,518,1.04242,518,0.711847,518,1.42683,518,0.923493,518,0.791906,518,1.50831,518,0.994118,
515,0.669823,515,1.38531,515,0.873329,515,0.725928,515,1.44094,515,0.952721,515,0.856666,515,1.56374,515,1.04098,515,0.711874,515,1.42971,515,0.922338,515,0.791623,515,1.51084,515,0.992914,
512,0.670304,512,1.38849,512,0.872637,512,0.725916,512,1.444,512,0.951792,512,0.856741,512,1.56692,512,1.04036,512,0.711976,512,1.43285,512,0.921362,512,0.791608,512,1.51371,512,0.991713,
509,0.670605,509,1.39187,509,0.871693,509,0.726049,509,1.44711,509,0.950682,509,0.856791,509,1.57007,509,1.03949,509,0.712272,509,1.43616,509,0.920435,509,0.791668,509,1.51701,509,0.990699,
506,0.670855,506,1.39533,506,0.870967,506,0.726367,506,1.45057,506,0.949988,506,0.857497,506,1.57395,506,1.03898,506,0.712738,506,1.43972,506,0.919763,506,0.791982,506,1.52065,506,0.990038,
503,0.671121,503,1.39891,503,0.870127,503,0.726719,503,1.45423,503,0.949253,503,0.858253,503,1.57795,503,1.03868,503,0.713198,503,1.44347,503,0.919114,503,0.79265,503,1.52445,503,0.989522,
500,0.671291,500,1.40263,500,0.869149,500,0.72748,500,1.45832,500,0.948974,500,0.859622,500,1.58277,500,1.03883,500,0.713834,500,1.44765,500,0.918822,500,0.793578,500,1.52891,500,0.989256,
,,,,,,,,,,,,,,,,,,,,,,,,,,,,,,
PDMS,,,,,,,,,,,,,,,,,,,,,,,,,,,,,,
PDMS,,,,,,,,,,,,,,,,,,,,,,,,,,,,,,
Collection Time: 7/1/2016 10:25:49 AM,,,,,,,,,,,,,,,,,,,,,,,,,,,,,,
Operator Name  :,,,,,,,,,,,,,,,,,,,,,,,,,,,,,,
Scan Version 6.0.0.1551,,,,,,,,,,,,,,,,,,,,,,,,,,,,,,
Parameter List :,,,,,,,,,,,,,,,,,,,,,,,,,,,,,,
Instrument  Cary 6000i,,,,,,,,,,,,,,,,,,,,,,,,,,,,,,
Instrument Version  2.23,,,,,,,,,,,,,,,,,,,,,,,,,,,,,,
Method Log     :,,,,,,,,,,,,,,,,,,,,,,,,,,,,,,
Method Name    :,,,,,,,,,,,,,,,,,,,,,,,,,,,,,,
Date/Time stamp: 7/1/2016 10:13:34 AM,,,,,,,,,,,,,,,,,,,,,,,,,,,,,,
Method Modifications:,,,,,,,,,,,,,,,,,,,,,,,,,,,,,,
X Start nm Changed: 7/1/2016 10:18:54 AM,Old:800.000,New:1100.000,,,,,,,,,,,,,,,,,,,,,,,,,,,,
X Stop nm Changed: 7/1/2016 10:18:54 AM,Old:200.000,New:500.000,,,,,,,,,,,,,,,,,,,,,,,,,,,,
UVVIS Scan Rate nm Changed: 7/1/2016 10:18:54 AM,Old:  602.007,New:  600.000,,,,,,,,,,,,,,,,,,,,,,,,,,,,
NIR Scan Rate nm Changed: 7/1/2016 10:18:54 AM,Old:  602.007,New:  600.000,,,,,,,,,,,,,,,,,,,,,,,,,,,,
UVVIS Interval EV Changed: 7/1/2016 10:18:54 AM,Old:0.00015,New:0.00015,,,,,,,,,,,,,,,,,,,,,,,,,,,,
[...]
UVVIS Scan Rate nm Changed: 7/1/2016 10:18:54 AM,Old:  602.007,New:  600.000,,,,,,,,,,,,,,,,,,,,,,,,,,,,
NIR Scan Rate nm Changed: 7/1/2016 10:18:54 AM,Old:  602.007,New:  600.000,,,,,,,,,,,,,,,,,,,,,,,,,,,,
UVVIS Interval EV Changed: 7/1/2016 10:18:54 AM,Old:0.00015,New:0.00015,,,,,,,,,,,,,,,,,,,,,,,,,,,,
NIR Interval EV Changed: 7/1/2016 10:18:54 AM,Old:0.00015,New:0.00015,,,,,,,,,,,,,,,,,,,,,,,,,,,,
Common Interval EV Changed: 7/1/2016 10:18:54 AM,Old:0.00015,New:0.00015,,,,,,,,,,,,,,,,,,,,,,,,,,,,
Baseline Correction Changed: 7/1/2016 10:18:54 AM,Old:0,New:1,,,,,,,,,,,,,,,,,,,,,,,,,,,,
Sipper Type Changed: 7/1/2016 10:18:54 AM, Old:Internal RSA, New:External sipper,,,,,,,,,,,,,,,,,,,,,,,,,,,,
Autoconvert Changed: 7/1/2016 10:22:00 AM, Old:None, New:Ascii,,,,,,,,,,,,,,,,,,,,,,,,,,,,
End Method Modifications,,,,,,,,,,,,,,,,,,,,,,,,,,,,,,
<Current Wavelength> ,500.000,,,,,,,,,,,,,,,,,,,,,,,,,,,,,
<SBW (nm)> ,2.00,,,,,,,,,,,,,,,,,,,,,,,,,,,,,
<Energy> ,3.47,,,,,,,,,,,,,,,,,,,,,,,,,,,,,
<Slit Height> , Full,,,,,,,,,,,,,,,,,,,,,,,,,,,,,
,,,,,,,,,,,,,,,,,,,,,,,,,,,,,,
K1S-ff-3mms,,,,,,,,,,,,,,,,,,,,,,,,,,,,,,
K1S-ff-3mms,,,,,,,,,,,,,,,,,,,,,,,,,,,,,,
Collection Time: 7/1/2016 10:43:53 AM,,,,,,,,,,,,,,,,,,,,,,,,,,,,,,
Operator Name  :,,,,,,,,,,,,,,,,,,,,,,,,,,,,,,
Scan Version 6.0.0.1551,,,,,,,,,,,,,,,,,,,,,,,,,,,,,,
Parameter List :,,,,,,,,,,,,,,,,,,,,,,,,,,,,,,
Instrument  Cary 6000i,,,,,,,,,,,,,,,,,,,,,,,,,,,,,,
Instrument Version  2.23,,,,,,,,,,,,,,,,,,,,,,,,,,,,,,
Method Log     :,,,,,,,,,,,,,,,,,,,,,,,,,,,,,,
Method Name    :,,,,,,,,,,,,,,,,,,,,,,,,,,,,,,
Date/Time stamp: 7/1/2016 10:13:34 AM,,,,,,,,,,,,,,,,,,,,,,,,,,,,,,
Method Modifications:,,,,,,,,,,,,,,,,,,,,,,,,,,,,,,
X Start nm Changed: 7/1/2016 10:18:54 AM,Old:800.000,New:1100.000,,,,,,,,,,,,,,,,,,,,,,,,,,,,
X Stop nm Changed: 7/1/2016 10:18:54 AM,Old:200.000,New:500.000,,,,,,,,,,,,,,,,,,,,,,,,,,,,
UVVIS Scan Rate nm Changed: 7/1/2016 10:18:54 AM,Old:  602.007,New:  600.000,,,,,,,,,,,,,,,,,,,,,,,,,,,,
NIR Scan Rate nm Changed: 7/1/2016 10:18:54 AM,Old:  602.007,New:  600.000,,,,,,,,,,,,,,,,,,,,,,,,,,,,
UVVIS Interval EV Changed: 7/1/2016 10:18:54 AM,Old:0.00015,New:0.00015,,,,,,,,,,,,,,,,,,,,,,,,,,,,
NIR Interval EV Changed: 7/1/2016 10:18:54 AM,Old:0.00015,New:0.00015,,,,,,,,,,,,,,,,,,,,,,,,,,,,
Common Interval EV Changed: 7/1/2016 10:18:54 AM,Old:0.00015,New:0.00015,,,,,,,,,,,,,,,,,,,,,,,,,,,,
Baseline Correction Changed: 7/1/2016 10:18:54 AM,Old:0,New:1,,,,,,,,,,,,,,,,,,,,,,,,,,,,
Sipper Type Changed: 7/1/2016 10:18:54 AM, Old:Internal RSA, New:External sipper,,,,,,,,,,,,,,,,,,,,,,,,,,,,
Autoconvert Changed: 7/1/2016 10:22:00 AM, Old:None, New:Ascii,,,,,,,,,,,,,,,,,,,,,,,,,,,,
End Method Modifications,,,,,,,,,,,,,,,,,,,,,,,,,,,,,,
<Current Wavelength> ,500.000,,,,,,,,,,,,,,,,,,,,,,,,,,,,,
<SBW (nm)> ,2.00,,,,,,,,,,,,,,,,,,,,,,,,,,,,,
<Energy> ,3.47,,,,,,,,,,,,,,,,,,,,,,,,,,,,,
<Slit Height> , Full,,,,,,,,,,,,,,,,,,,,,,,,,,,,,
,,,,,,,,,,,,,,,,,,,,,,,,,,,,,,
K1S-ff-3mms-90,,,,,,,,,,,,,,,,,,,,,,,,,,,,,,
K1S-ff-3mms-90,,,,,,,,,,,,,,,,,,,,,,,,,,,,,,
Collection Time: 7/1/2016 10:46:04 AM,,,,,,,,,,,,,,,,,,,,,,,,,,,,,,
Operator Name  :,,,,,,,,,,,,,,,,,,,,,,,,,,,,,,
Scan Version 6.0.0.1551,,,,,,,,,,,,,,,,,,,,,,,,,,,,,,
Parameter List :,,,,,,,,,,,,,,,,,,,,,,,,,,,,,,
Instrument  Cary 6000i,,,,,,,,,,,,,,,,,,,,,,,,,,,,,,
Instrument Version  2.23,,,,,,,,,,,,,,,,,,,,,,,,,,,,,,
Method Log     :,,,,,,,,,,,,,,,,,,,,,,,,,,,,,,
Method Name    :,,,,,,,,,,,,,,,,,,,,,,,,,,,,,,
Date/Time stamp: 7/1/2016 10:13:34 AM,,,,,,,,,,,,,,,,,,,,,,,,,,,,,,
Method Modifications:,,,,,,,,,,,,,,,,,,,,,,,,,,,,,,
X Start nm Changed: 7/1/2016 10:18:54 AM,Old:800.000,New:1100.000,,,,,,,,,,,,,,,,,,,,,,,,,,,,
X Stop nm Changed: 7/1/2016 10:18:54 AM,Old:200.000,New:500.000,,,,,,,,,,,,,,,,,,,,,,,,,,,,
UVVIS Scan Rate nm Changed: 7/1/2016 10:18:54 AM,Old:  602.007,New:  600.000,,,,,,,,,,,,,,,,,,,,,,,,,,,,
NIR Scan Rate nm Changed: 7/1/2016 10:18:54 AM,Old:  602.007,New:  600.000,,,,,,,,,,,,,,,,,,,,,,,,,,,,
UVVIS Interval EV Changed: 7/1/2016 10:18:54 AM,Old:0.00015,New:0.00015,,,,,,,,,,,,,,,,,,,,,,,,,,,,
NIR Interval EV Changed: 7/1/2016 10:18:54 AM,Old:0.00015,New:0.00015,,,,,,,,,,,,,,,,,,,,,,,,,,,,
Common Interval EV Changed: 7/1/2016 10:18:54 AM,Old:0.00015,New:0.00015,,,,,,,,,,,,,,,,,,,,,,,,,,,,
Baseline Correction Changed: 7/1/2016 10:18:54 AM,Old:0,New:1,,,,,,,,,,,,,,,,,,,,,,,,,,,,
Sipper Type Changed: 7/1/2016 10:18:54 AM, Old:Internal RSA, New:External sipper,,,,,,,,,,,,,,,,,,,,,,,,,,,,
Autoconvert Changed: 7/1/2016 10:22:00 AM, Old:None, New:Ascii,,,,,,,,,,,,,,,,,,,,,,,,,,,,
End Method Modifications,,,,,,,,,,,,,,,,,,,,,,,,,,,,,,
<Current Wavelength> ,500.000,,,,,,,,,,,,,,,,,,,,,,,,,,,,,
<SBW (nm)> ,2.00,,,,,,,,,,,,,,,,,,,,,,,,,,,,,
<Energy> ,3.47,,,,,,,,,,,,,,,,,,,,,,,,,,,,,
<Slit Height> , Full,,,,,,,,,,,,,,,,,,,,,,,,,,,,,
,,,,,,,,,,,,,,,,,,,,,,,,,,,,,,
K1S-ff-3mms-0,,,,,,,,,,,,,,,,,,,,,,,,,,,,,,
K1S-ff-3mms-0,,,,,,,,,,,,,,,,,,,,,,,,,,,,,,
Collection Time: 7/1/2016 10:48:08 AM,,,,,,,,,,,,,,,,,,,,,,,,,,,,,,
Operator Name  :,,,,,,,,,,,,,,,,,,,,,,,,,,,,,,
Scan Version 6.0.0.1551,,,,,,,,,,,,,,,,,,,,,,,,,,,,,,
Parameter List :,,,,,,,,,,,,,,,,,,,,,,,,,,,,,,
Instrument  Cary 6000i,,,,,,,,,,,,,,,,,,,,,,,,,,,,,,
Instrument Version  2.23,,,,,,,,,,,,,,,,,,,,,,,,,,,,,,
Method Log     :,,,,,,,,,,,,,,,,,,,,,,,,,,,,,,
Method Name    :,,,,,,,,,,,,,,,,,,,,,,,,,,,,,,
Date/Time stamp: 7/1/2016 10:13:34 AM,,,,,,,,,,,,,,,,,,,,,,,,,,,,,,
Method Modifications:,,,,,,,,,,,,,,,,,,,,,,,,,,,,,,
X Start nm Changed: 7/1/2016 10:18:54 AM,Old:800.000,New:1100.000,,,,,,,,,,,,,,,,,,,,,,,,,,,,
X Stop nm Changed: 7/1/2016 10:18:54 AM,Old:200.000,New:500.000,,,,,,,,,,,,,,,,,,,,,,,,,,,,
UVVIS Scan Rate nm Changed: 7/1/2016 10:18:54 AM,Old:  602.007,New:  600.000,,,,,,,,,,,,,,,,,,,,,,,,,,,,
NIR Scan Rate nm Changed: 7/1/2016 10:18:54 AM,Old:  602.007,New:  600.000,,,,,,,,,,,,,,,,,,,,,,,,,,,,
UVVIS Interval EV Changed: 7/1/2016 10:18:54 AM,Old:0.00015,New:0.00015,,,,,,,,,,,,,,,,,,,,,,,,,,,,
NIR Interval EV Changed: 7/1/2016 10:18:54 AM,Old:0.00015,New:0.00015,,,,,,,,,,,,,,,,,,,,,,,,,,,,
Common Interval EV Changed: 7/1/2016 10:18:54 AM,Old:0.00015,New:0.00015,,,,,,,,,,,,,,,,,,,,,,,,,,,,
Baseline Correction Changed: 7/1/2016 10:18:54 AM,Old:0,New:1,,,,,,,,,,,,,,,,,,,,,,,,,,,,
Sipper Type Changed: 7/1/2016 10:18:54 AM, Old:Internal RSA, New:External sipper,,,,,,,,,,,,,,,,,,,,,,,,,,,,
Autoconvert Changed: 7/1/2016 10:22:00 AM, Old:None, New:Ascii,,,,,,,,,,,,,,,,,,,,,,,,,,,,
End Method Modifications,,,,,,,,,,,,,,,,,,,,,,,,,,,,,,
<Current Wavelength> ,500.000,,,,,,,,,,,,,,,,,,,,,,,,,,,,,
<SBW (nm)> ,2.00,,,,,,,,,,,,,,,,,,,,,,,,,,,,,
<Energy> ,3.47,,,,,,,,,,,,,,,,,,,,,,,,,,,,,
<Slit Height> , Full,,,,,,,,,,,,,,,,,,,,,,,,,,,,,
,,,,,,,,,,,,,,,,,,,,,,,,,,,,,,
K1S-lf-3mms,,,,,,,,,,,,,,,,,,,,,,,,,,,,,,
K1S-lf-3mms,,,,,,,,,,,,,,,,,,,,,,,,,,,,,,
Collection Time: 7/1/2016 10:51:38 AM,,,,,,,,,,,,,,,,,,,,,,,,,,,,,,
Operator Name  :,,,,,,,,,,,,,,,,,,,,,,,,,,,,,,
Scan Version 6.0.0.1551,,,,,,,,,,,,,,,,,,,,,,,,,,,,,,
Parameter List :,,,,,,,,,,,,,,,,,,,,,,,,,,,,,,
Instrument  Cary 6000i,,,,,,,,,,,,,,,,,,,,,,,,,,,,,,
Instrument Version  2.23,,,,,,,,,,,,,,,,,,,,,,,,,,,,,,
Method Log     :,,,,,,,,,,,,,,,,,,,,,,,,,,,,,,
Method Name    :,,,,,,,,,,,,,,,,,,,,,,,,,,,,,,
Date/Time stamp: 7/1/2016 10:13:34 AM,,,,,,,,,,,,,,,,,,,,,,,,,,,,,,
Method Modifications:,,,,,,,,,,,,,,,,,,,,,,,,,,,,,,
X Start nm Changed: 7/1/2016 10:18:54 AM,Old:800.000,New:1100.000,,,,,,,,,,,,,,,,,,,,,,,,,,,,
X Stop nm Changed: 7/1/2016 10:18:54 AM,Old:200.000,New:500.000,,,,,,,,,,,,,,,,,,,,,,,,,,,,
UVVIS Scan Rate nm Changed: 7/1/2016 10:18:54 AM,Old:  602.007,New:  600.000,,,,,,,,,,,,,,,,,,,,,,,,,,,,
NIR Scan Rate nm Changed: 7/1/2016 10:18:54 AM,Old:  602.007,New:  600.000,,,,,,,,,,,,,,,,,,,,,,,,,,,,
UVVIS Interval EV Changed: 7/1/2016 10:18:54 AM,Old:0.00015,New:0.00015,,,,,,,,,,,,,,,,,,,,,,,,,,,,
NIR Interval EV Changed: 7/1/2016 10:18:54 AM,Old:0.00015,New:0.00015,,,,,,,,,,,,,,,,,,,,,,,,,,,,
Common Interval EV Changed: 7/1/2016 10:18:54 AM,Old:0.00015,New:0.00015,,,,,,,,,,,,,,,,,,,,,,,,,,,,
Baseline Correction Changed: 7/1/2016 10:18:54 AM,Old:0,New:1,,,,,,,,,,,,,,,,,,,,,,,,,,,,
Sipper Type Changed: 7/1/2016 10:18:54 AM, Old:Internal RSA, New:External sipper,,,,,,,,,,,,,,,,,,,,,,,,,,,,
Autoconvert Changed: 7/1/2016 10:22:00 AM, Old:None, New:Ascii,,,,,,,,,,,,,,,,,,,,,,,,,,,,
End Method Modifications,,,,,,,,,,,,,,,,,,,,,,,,,,,,,,
<Current Wavelength> ,500.000,,,,,,,,,,,,,,,,,,,,,,,,,,,,,
<SBW (nm)> ,2.00,,,,,,,,,,,,,,,,,,,,,,,,,,,,,
<Energy> ,3.47,,,,,,,,,,,,,,,,,,,,,,,,,,,,,
<Slit Height> , Full,,,,,,,,,,,,,,,,,,,,,,,,,,,,,
,,,,,,,,,,,,,,,,,,,,,,,,,,,,,,
K1S-lf-3mms-90,,,,,,,,,,,,,,,,,,,,,,,,,,,,,,
K1S-lf-3mms-90,,,,,,,,,,,,,,,,,,,,,,,,,,,,,,
Collection Time: 7/1/2016 10:53:48 AM,,,,,,,,,,,,,,,,,,,,,,,,,,,,,,
Operator Name  :,,,,,,,,,,,,,,,,,,,,,,,,,,,,,,
Scan Version 6.0.0.1551,,,,,,,,,,,,,,,,,,,,,,,,,,,,,,
Parameter List :,,,,,,,,,,,,,,,,,,,,,,,,,,,,,,
Instrument  Cary 6000i,,,,,,,,,,,,,,,,,,,,,,,,,,,,,,
Instrument Version  2.23,,,,,,,,,,,,,,,,,,,,,,,,,,,,,,
Method Log     :,,,,,,,,,,,,,,,,,,,,,,,,,,,,,,
Method Name    :,,,,,,,,,,,,,,,,,,,,,,,,,,,,,,
Date/Time stamp: 7/1/2016 10:13:34 AM,,,,,,,,,,,,,,,,,,,,,,,,,,,,,,
Method Modifications:,,,,,,,,,,,,,,,,,,,,,,,,,,,,,,
X Start nm Changed: 7/1/2016 10:18:54 AM,Old:800.000,New:1100.000,,,,,,,,,,,,,,,,,,,,,,,,,,,,
X Stop nm Changed: 7/1/2016 10:18:54 AM,Old:200.000,New:500.000,,,,,,,,,,,,,,,,,,,,,,,,,,,,
UVVIS Scan Rate nm Changed: 7/1/2016 10:18:54 AM,Old:  602.007,New:  600.000,,,,,,,,,,,,,,,,,,,,,,,,,,,,
NIR Scan Rate nm Changed: 7/1/2016 10:18:54 AM,Old:  602.007,New:  600.000,,,,,,,,,,,,,,,,,,,,,,,,,,,,
UVVIS Interval EV Changed: 7/1/2016 10:18:54 AM,Old:0.00015,New:0.00015,,,,,,,,,,,,,,,,,,,,,,,,,,,,
NIR Interval EV Changed: 7/1/2016 10:18:54 AM,Old:0.00015,New:0.00015,,,,,,,,,,,,,,,,,,,,,,,,,,,,
Common Interval EV Changed: 7/1/2016 10:18:54 AM,Old:0.00015,New:0.00015,,,,,,,,,,,,,,,,,,,,,,,,,,,,
Baseline Correction Changed: 7/1/2016 10:18:54 AM,Old:0,New:1,,,,,,,,,,,,,,,,,,,,,,,,,,,,
Sipper Type Changed: 7/1/2016 10:18:54 AM, Old:Internal RSA, New:External sipper,,,,,,,,,,,,,,,,,,,,,,,,,,,,
Autoconvert Changed: 7/1/2016 10:22:00 AM, Old:None, New:Ascii,,,,,,,,,,,,,,,,,,,,,,,,,,,,
End Method Modifications,,,,,,,,,,,,,,,,,,,,,,,,,,,,,,
<Current Wavelength> ,500.000,,,,,,,,,,,,,,,,,,,,,,,,,,,,,
<SBW (nm)> ,2.00,,,,,,,,,,,,,,,,,,,,,,,,,,,,,
<Energy> ,3.47,,,,,,,,,,,,,,,,,,,,,,,,,,,,,
<Slit Height> , Full,,,,,,,,,,,,,,,,,,,,,,,,,,,,,
,,,,,,,,,,,,,,,,,,,,,,,,,,,,,,
K1S-lf-3mms-9,,,,,,,,,,,,,,,,,,,,,,,,,,,,,,
K1S-lf-3mms-9,,,,,,,,,,,,,,,,,,,,,,,,,,,,,,
Collection Time: 7/1/2016 10:55:55 AM,,,,,,,,,,,,,,,,,,,,,,,,,,,,,,
Operator Name  :,,,,,,,,,,,,,,,,,,,,,,,,,,,,,,
Scan Version 6.0.0.1551,,,,,,,,,,,,,,,,,,,,,,,,,,,,,,
Parameter List :,,,,,,,,,,,,,,,,,,,,,,,,,,,,,,
Instrument  Cary 6000i,,,,,,,,,,,,,,,,,,,,,,,,,,,,,,
Instrument Version  2.23,,,,,,,,,,,,,,,,,,,,,,,,,,,,,,
Method Log     :,,,,,,,,,,,,,,,,,,,,,,,,,,,,,,
Method Name    :,,,,,,,,,,,,,,,,,,,,,,,,,,,,,,
Date/Time stamp: 7/1/2016 10:13:34 AM,,,,,,,,,,,,,,,,,,,,,,,,,,,,,,
Method Modifications:,,,,,,,,,,,,,,,,,,,,,,,,,,,,,,
X Start nm Changed: 7/1/2016 10:18:54 AM,Old:800.000,New:1100.000,,,,,,,,,,,,,,,,,,,,,,,,,,,,
X Stop nm Changed: 7/1/2016 10:18:54 AM,Old:200.000,New:500.000,,,,,,,,,,,,,,,,,,,,,,,,,,,,
UVVIS Scan Rate nm Changed: 7/1/2016 10:18:54 AM,Old:  602.007,New:  600.000,,,,,,,,,,,,,,,,,,,,,,,,,,,,
NIR Scan Rate nm Changed: 7/1/2016 10:18:54 AM,Old:  602.007,New:  600.000,,,,,,,,,,,,,,,,,,,,,,,,,,,,
UVVIS Interval EV Changed: 7/1/2016 10:18:54 AM,Old:0.00015,New:0.00015,,,,,,,,,,,,,,,,,,,,,,,,,,,,
NIR Interval EV Changed: 7/1/2016 10:18:54 AM,Old:0.00015,New:0.00015,,,,,,,,,,,,,,,,,,,,,,,,,,,,
Common Interval EV Changed: 7/1/2016 10:18:54 AM,Old:0.00015,New:0.00015,,,,,,,,,,,,,,,,,,,,,,,,,,,,
Baseline Correction Changed: 7/1/2016 10:18:54 AM,Old:0,New:1,,,,,,,,,,,,,,,,,,,,,,,,,,,,
Sipper Type Changed: 7/1/2016 10:18:54 AM, Old:Internal RSA, New:External sipper,,,,,,,,,,,,,,,,,,,,,,,,,,,,
Autoconvert Changed: 7/1/2016 10:22:00 AM, Old:None, New:Ascii,,,,,,,,,,,,,,,,,,,,,,,,,,,,
End Method Modifications,,,,,,,,,,,,,,,,,,,,,,,,,,,,,,
<Current Wavelength> ,500.000,,,,,,,,,,,,,,,,,,,,,,,,,,,,,
<SBW (nm)> ,2.00,,,,,,,,,,,,,,,,,,,,,,,,,,,,,
<Energy> ,3.47,,,,,,,,,,,,,,,,,,,,,,,,,,,,,
<Slit Height> , Full,,,,,,,,,,,,,,,,,,,,,,,,,,,,,
,,,,,,,,,,,,,,,,,,,,,,,,,,,,,,
K1S-lf-3mms-2,,,,,,,,,,,,,,,,,,,,,,,,,,,,,,
K1S-lf-3mms-2,,,,,,,,,,,,,,,,,,,,,,,,,,,,,,
Collection Time: 7/1/2016 11:03:17 AM,,,,,,,,,,,,,,,,,,,,,,,,,,,,,,
Operator Name  :,,,,,,,,,,,,,,,,,,,,,,,,,,,,,,
Scan Version 6.0.0.1551,,,,,,,,,,,,,,,,,,,,,,,,,,,,,,
Parameter List :,,,,,,,,,,,,,,,,,,,,,,,,,,,,,,
Instrument  Cary 6000i,,,,,,,,,,,,,,,,,,,,,,,,,,,,,,
Instrument Version  2.23,,,,,,,,,,,,,,,,,,,,,,,,,,,,,,
Method Log     :,,,,,,,,,,,,,,,,,,,,,,,,,,,,,,
Method Name    :,,,,,,,,,,,,,,,,,,,,,,,,,,,,,,
Date/Time stamp: 7/1/2016 10:13:34 AM,,,,,,,,,,,,,,,,,,,,,,,,,,,,,,
Method Modifications:,,,,,,,,,,,,,,,,,,,,,,,,,,,,,,
X Start nm Changed: 7/1/2016 10:18:54 AM,Old:800.000,New:1100.000,,,,,,,,,,,,,,,,,,,,,,,,,,,,
X Stop nm Changed: 7/1/2016 10:18:54 AM,Old:200.000,New:500.000,,,,,,,,,,,,,,,,,,,,,,,,,,,,
UVVIS Scan Rate nm Changed: 7/1/2016 10:18:54 AM,Old:  602.007,New:  600.000,,,,,,,,,,,,,,,,,,,,,,,,,,,,
NIR Scan Rate nm Changed: 7/1/2016 10:18:54 AM,Old:  602.007,New:  600.000,,,,,,,,,,,,,,,,,,,,,,,,,,,,
UVVIS Interval EV Changed: 7/1/2016 10:18:54 AM,Old:0.00015,New:0.00015,,,,,,,,,,,,,,,,,,,,,,,,,,,,
NIR Interval EV Changed: 7/1/2016 10:18:54 AM,Old:0.00015,New:0.00015,,,,,,,,,,,,,,,,,,,,,,,,,,,,
Common Interval EV Changed: 7/1/2016 10:18:54 AM,Old:0.00015,New:0.00015,,,,,,,,,,,,,,,,,,,,,,,,,,,,
Baseline Correction Changed: 7/1/2016 10:18:54 AM,Old:0,New:1,,,,,,,,,,,,,,,,,,,,,,,,,,,,
Sipper Type Changed: 7/1/2016 10:18:54 AM, Old:Internal RSA, New:External sipper,,,,,,,,,,,,,,,,,,,,,,,,,,,,
Autoconvert Changed: 7/1/2016 10:22:00 AM, Old:None, New:Ascii,,,,,,,,,,,,,,,,,,,,,,,,,,,,
End Method Modifications,,,,,,,,,,,,,,,,,,,,,,,,,,,,,,
<Current Wavelength> ,500.000,,,,,,,,,,,,,,,,,,,,,,,,,,,,,
<SBW (nm)> ,2.00,,,,,,,,,,,,,,,,,,,,,,,,,,,,,
<Energy> ,3.47,,,,,,,,,,,,,,,,,,,,,,,,,,,,,
<Slit Height> , Full,,,,,,,,,,,,,,,,,,,,,,,,,,,,,
,,,,,,,,,,,,,,,,,,,,,,,,,,,,,,
K1S-lf-3mms-2-90,,,,,,,,,,,,,,,,,,,,,,,,,,,,,,
K1S-lf-3mms-2-90,,,,,,,,,,,,,,,,,,,,,,,,,,,,,,
Collection Time: 7/1/2016 11:05:24 AM,,,,,,,,,,,,,,,,,,,,,,,,,,,,,,
Operator Name  :,,,,,,,,,,,,,,,,,,,,,,,,,,,,,,
Scan Version 6.0.0.1551,,,,,,,,,,,,,,,,,,,,,,,,,,,,,,
Parameter List :,,,,,,,,,,,,,,,,,,,,,,,,,,,,,,
Instrument  Cary 6000i,,,,,,,,,,,,,,,,,,,,,,,,,,,,,,
Instrument Version  2.23,,,,,,,,,,,,,,,,,,,,,,,,,,,,,,
Method Log     :,,,,,,,,,,,,,,,,,,,,,,,,,,,,,,
Method Name    :,,,,,,,,,,,,,,,,,,,,,,,,,,,,,,
Date/Time stamp: 7/1/2016 10:13:34 AM,,,,,,,,,,,,,,,,,,,,,,,,,,,,,,
Method Modifications:,,,,,,,,,,,,,,,,,,,,,,,,,,,,,,
X Start nm Changed: 7/1/2016 10:18:54 AM,Old:800.000,New:1100.000,,,,,,,,,,,,,,,,,,,,,,,,,,,,
X Stop nm Changed: 7/1/2016 10:18:54 AM,Old:200.000,New:500.000,,,,,,,,,,,,,,,,,,,,,,,,,,,,
UVVIS Scan Rate nm Changed: 7/1/2016 10:18:54 AM,Old:  602.007,New:  600.000,,,,,,,,,,,,,,,,,,,,,,,,,,,,
NIR Scan Rate nm Changed: 7/1/2016 10:18:54 AM,Old:  602.007,New:  600.000,,,,,,,,,,,,,,,,,,,,,,,,,,,,
UVVIS Interval EV Changed: 7/1/2016 10:18:54 AM,Old:0.00015,New:0.00015,,,,,,,,,,,,,,,,,,,,,,,,,,,,
NIR Interval EV Changed: 7/1/2016 10:18:54 AM,Old:0.00015,New:0.00015,,,,,,,,,,,,,,,,,,,,,,,,,,,,
Common Interval EV Changed: 7/1/2016 10:18:54 AM,Old:0.00015,New:0.00015,,,,,,,,,,,,,,,,,,,,,,,,,,,,
Baseline Correction Changed: 7/1/2016 10:18:54 AM,Old:0,New:1,,,,,,,,,,,,,,,,,,,,,,,,,,,,
Sipper Type Changed: 7/1/2016 10:18:54 AM, Old:Internal RSA, New:External sipper,,,,,,,,,,,,,,,,,,,,,,,,,,,,
Autoconvert Changed: 7/1/2016 10:22:00 AM, Old:None, New:Ascii,,,,,,,,,,,,,,,,,,,,,,,,,,,,
End Method Modifications,,,,,,,,,,,,,,,,,,,,,,,,,,,,,,
<Current Wavelength> ,500.000,,,,,,,,,,,,,,,,,,,,,,,,,,,,,
<SBW (nm)> ,2.00,,,,,,,,,,,,,,,,,,,,,,,,,,,,,
<Energy> ,3.47,,,,,,,,,,,,,,,,,,,,,,,,,,,,,
<Slit Height> , Full,,,,,,,,,,,,,,,,,,,,,,,,,,,,,
,,,,,,,,,,,,,,,,,,,,,,,,,,,,,,
K1S-lf-3mms-2-0,,,,,,,,,,,,,,,,,,,,,,,,,,,,,,
K1S-lf-3mms-2-0,,,,,,,,,,,,,,,,,,,,,,,,,,,,,,
Collection Time: 7/1/2016 11:07:34 AM,,,,,,,,,,,,,,,,,,,,,,,,,,,,,,
Operator Name  :,,,,,,,,,,,,,,,,,,,,,,,,,,,,,,
Scan Version 6.0.0.1551,,,,,,,,,,,,,,,,,,,,,,,,,,,,,,
Parameter List :,,,,,,,,,,,,,,,,,,,,,,,,,,,,,,
Instrument  Cary 6000i,,,,,,,,,,,,,,,,,,,,,,,,,,,,,,
Instrument Version  2.23,,,,,,,,,,,,,,,,,,,,,,,,,,,,,,
Method Log     :,,,,,,,,,,,,,,,,,,,,,,,,,,,,,,
Method Name    :,,,,,,,,,,,,,,,,,,,,,,,,,,,,,,
Date/Time stamp: 7/1/2016 10:13:34 AM,,,,,,,,,,,,,,,,,,,,,,,,,,,,,,
Method Modifications:,,,,,,,,,,,,,,,,,,,,,,,,,,,,,,
X Start nm Changed: 7/1/2016 10:18:54 AM,Old:800.000,New:1100.000,,,,,,,,,,,,,,,,,,,,,,,,,,,,
X Stop nm Changed: 7/1/2016 10:18:54 AM,Old:200.000,New:500.000,,,,,,,,,,,,,,,,,,,,,,,,,,,,
UVVIS Scan Rate nm Changed: 7/1/2016 10:18:54 AM,Old:  602.007,New:  600.000,,,,,,,,,,,,,,,,,,,,,,,,,,,,
NIR Scan Rate nm Changed: 7/1/2016 10:18:54 AM,Old:  602.007,New:  600.000,,,,,,,,,,,,,,,,,,,,,,,,,,,,
UVVIS Interval EV Changed: 7/1/2016 10:18:54 AM,Old:0.00015,New:0.00015,,,,,,,,,,,,,,,,,,,,,,,,,,,,
NIR Interval EV Changed: 7/1/2016 10:18:54 AM,Old:0.00015,New:0.00015,,,,,,,,,,,,,,,,,,,,,,,,,,,,
Common Interval EV Changed: 7/1/2016 10:18:54 AM,Old:0.00015,New:0.00015,,,,,,,,,,,,,,,,,,,,,,,,,,,,
Baseline Correction Changed: 7/1/2016 10:18:54 AM,Old:0,New:1,,,,,,,,,,,,,,,,,,,,,,,,,,,,
Sipper Type Changed: 7/1/2016 10:18:54 AM, Old:Internal RSA, New:External sipper,,,,,,,,,,,,,,,,,,,,,,,,,,,,
Autoconvert Changed: 7/1/2016 10:22:00 AM, Old:None, New:Ascii,,,,,,,,,,,,,,,,,,,,,,,,,,,,
End Method Modifications,,,,,,,,,,,,,,,,,,,,,,,,,,,,,,
<Current Wavelength> ,500.000,,,,,,,,,,,,,,,,,,,,,,,,,,,,,
<SBW (nm)> ,2.00,,,,,,,,,,,,,,,,,,,,,,,,,,,,,
<Energy> ,3.47,,,,,,,,,,,,,,,,,,,,,,,,,,,,,
<Slit Height> , Full,,,,,,,,,,,,,,,,,,,,,,,,,,,,,
,,,,,,,,,,,,,,,,,,,,,,,,,,,,,,
K1S-pf-3mms,,,,,,,,,,,,,,,,,,,,,,,,,,,,,,
K1S-pf-3mms,,,,,,,,,,,,,,,,,,,,,,,,,,,,,,
Collection Time: 7/1/2016 11:13:44 AM,,,,,,,,,,,,,,,,,,,,,,,,,,,,,,
Operator Name  :,,,,,,,,,,,,,,,,,,,,,,,,,,,,,,
Scan Version 6.0.0.1551,,,,,,,,,,,,,,,,,,,,,,,,,,,,,,
Parameter List :,,,,,,,,,,,,,,,,,,,,,,,,,,,,,,
Instrument  Cary 6000i,,,,,,,,,,,,,,,,,,,,,,,,,,,,,,
Instrument Version  2.23,,,,,,,,,,,,,,,,,,,,,,,,,,,,,,
Method Log     :,,,,,,,,,,,,,,,,,,,,,,,,,,,,,,
Method Name    :,,,,,,,,,,,,,,,,,,,,,,,,,,,,,,
Date/Time stamp: 7/1/2016 10:13:34 AM,,,,,,,,,,,,,,,,,,,,,,,,,,,,,,
Method Modifications:,,,,,,,,,,,,,,,,,,,,,,,,,,,,,,
X Start nm Changed: 7/1/2016 10:18:54 AM,Old:800.000,New:1100.000,,,,,,,,,,,,,,,,,,,,,,,,,,,,
X Stop nm Changed: 7/1/2016 10:18:54 AM,Old:200.000,New:500.000,,,,,,,,,,,,,,,,,,,,,,,,,,,,
UVVIS Scan Rate nm Changed: 7/1/2016 10:18:54 AM,Old:  602.007,New:  600.000,,,,,,,,,,,,,,,,,,,,,,,,,,,,
NIR Scan Rate nm Changed: 7/1/2016 10:18:54 AM,Old:  602.007,New:  600.000,,,,,,,,,,,,,,,,,,,,,,,,,,,,
UVVIS Interval EV Changed: 7/1/2016 10:18:54 AM,Old:0.00015,New:0.00015,,,,,,,,,,,,,,,,,,,,,,,,,,,,
NIR Interval EV Changed: 7/1/2016 10:18:54 AM,Old:0.00015,New:0.00015,,,,,,,,,,,,,,,,,,,,,,,,,,,,
Common Interval EV Changed: 7/1/2016 10:18:54 AM,Old:0.00015,New:0.00015,,,,,,,,,,,,,,,,,,,,,,,,,,,,
Baseline Correction Changed: 7/1/2016 10:18:54 AM,Old:0,New:1,,,,,,,,,,,,,,,,,,,,,,,,,,,,
Sipper Type Changed: 7/1/2016 10:18:54 AM, Old:Internal RSA, New:External sipper,,,,,,,,,,,,,,,,,,,,,,,,,,,,
Autoconvert Changed: 7/1/2016 10:22:00 AM, Old:None, New:Ascii,,,,,,,,,,,,,,,,,,,,,,,,,,,,
End Method Modifications,,,,,,,,,,,,,,,,,,,,,,,,,,,,,,
<Current Wavelength> ,500.000,,,,,,,,,,,,,,,,,,,,,,,,,,,,,
<SBW (nm)> ,2.00,,,,,,,,,,,,,,,,,,,,,,,,,,,,,
<Energy> ,3.47,,,,,,,,,,,,,,,,,,,,,,,,,,,,,
<Slit Height> , Full,,,,,,,,,,,,,,,,,,,,,,,,,,,,,